Folder: DigitalTwins-Machine-Learning/2_Tensile_Data (part 16)

File: Hamel_ForceTest_Bolt5_Test8.csv
Time, Load (lb), Position (in), AxialStrain (in), TransverseStrain (in), Auxiliary (), Control Out (V), Stress (psi)
0.0, 11.4409, 0.0, NaN, NaN, NaN, -0.007935055, "- N/A -   "
0.01, 11.4409, 0.0, NaN, NaN, NaN, -6.103888E-4, "- N/A -   "
0.02, 11.4409, 0.0, NaN, NaN, NaN, 0.006714277, "- N/A -   "
0.03, 11.4409, 0.0, NaN, NaN, NaN, 0.0238052, "- N/A -   "
0.04, 11.5589, 5.553504E-6, NaN, NaN, NaN, 0.04089605, "- N/A -   "
0.05, 11.7947, 1.66605e-05, NaN, NaN, NaN, 0.0555454, "- N/A -   "
0.06, 11.9127, 3.3321e-05, NaN, NaN, NaN, 0.0689739, "- N/A -   "
0.07, 12.2665, 5.27583e-05, NaN, NaN, NaN, 0.07874016, "- N/A -   "
0.08, 12.6204, 7.774905E-5, NaN, NaN, NaN, 0.0872856, "- N/A -   "
0.09, 13.09217, 0.000105517, NaN, NaN, NaN, 0.09461027, "- N/A -   "
0.1, 13.564, 0.000136061, NaN, NaN, NaN, 0.095831, "- N/A -   "
0.11, 14.0357, 0.000166605, NaN, NaN, NaN, 0.0897272, "- N/A -   "
0.12, 14.5075, 0.000194373, NaN, NaN, NaN, 0.084844, "- N/A -   "
0.13, 14.7434, 2.193634E-4, NaN, NaN, NaN, 0.0799609, "- N/A -   "
0.14, 15.2152, 2.471309E-4, NaN, NaN, NaN, 0.0762986, "- N/A -   "
0.15, 15.4511, 0.000269345, NaN, NaN, NaN, 0.07263627, "- N/A -   "
0.16, 15.805, 0.000288782, NaN, NaN, NaN, 0.07141549, "- N/A -   "
0.17, 15.9229, 0.000308219, NaN, NaN, NaN, 0.0701947, "- N/A -   "
0.18, 16.27675, 0.000327657, NaN, NaN, NaN, 0.0689739, "- N/A -   "
0.19, 16.6306, 0.000347094, NaN, NaN, NaN, 0.06775316, "- N/A -   "
0.2, 16.74854, 0.000366531, NaN, NaN, NaN, 0.06775316, "- N/A -   "
0.21, 17.1024, 3.859685E-4, NaN, NaN, NaN, 0.0653116, "- N/A -   "
0.22, 17.3383, 0.000402629, NaN, NaN, NaN, 0.0653116, "- N/A -   "
0.23, 17.5742, 0.000424843, NaN, NaN, NaN, 0.0640908, "- N/A -   "
0.24, 17.8101, 4.442803E-4, NaN, NaN, NaN, 0.06164927, "- N/A -   "
0.25, 18.046, 0.000463718, NaN, NaN, NaN, 0.0604285, "- N/A -   "
0.26, 18.16391, 4.831548E-4, NaN, NaN, NaN, 0.0592077, "- N/A -   "
0.27, 18.5178, 0.000502592, NaN, NaN, NaN, 0.0592077, "- N/A -   "
0.28, 18.7536, 5.192526E-4, NaN, NaN, NaN, 0.0579869, "- N/A -   "
0.29, 18.9895, 0.00053869, NaN, NaN, NaN, 0.05676616, "- N/A -   "
0.3, 19.2254, 5.581271E-4, NaN, NaN, NaN, 0.0555454, "- N/A -   "
0.31, 19.4613, 0.000577564, NaN, NaN, NaN, 0.0543246, "- N/A -   "
0.36, 20.8767, 0.000677527, NaN, NaN, NaN, 0.04699994, "- N/A -   "
0.41, 22.0562, 7.774905E-4, NaN, NaN, NaN, 0.0396753, "- N/A -   "
0.46, 23.2357, 8.635698E-4, NaN, NaN, NaN, 0.0384545, "- N/A -   "
0.51, 24.5331, 0.000957979, NaN, NaN, NaN, 0.0335714, "- N/A -   "
0.56, 25.5946, 0.00105239, NaN, NaN, NaN, 0.0286883, "- N/A -   "
0.61, 26.7741, 0.00113291, NaN, NaN, NaN, 0.03112983, "- N/A -   "
0.66, 27.8356, 0.00121066, NaN, NaN, NaN, 0.0323506, "- N/A -   "
0.71, 28.89713, 0.00128564, NaN, NaN, NaN, 0.03601294, "- N/A -   "
0.76, 29.84071, 0.00135783, NaN, NaN, NaN, 0.04211683, "- N/A -   "
0.81, 30.9022, 0.00143558, NaN, NaN, NaN, 0.0433376, "- N/A -   "
0.86, 32.08171, 0.00151611, NaN, NaN, NaN, 0.0445584, "- N/A -   "
0.91, 33.2612, 0.00160219, NaN, NaN, NaN, 0.0445584, "- N/A -   "
0.96, 34.6766, 0.00168549, NaN, NaN, NaN, 0.0433376, "- N/A -   "
1.01, 35.97398, 0.00177712, NaN, NaN, NaN, 0.0396753, "- N/A -   "
1.06, 37.3893, 0.00187153, NaN, NaN, NaN, 0.03601294, "- N/A -   "
1.11, 38.8047, 0.001968717, NaN, NaN, NaN, 0.0299091, "- N/A -   "
1.16, 40.22009, 0.0020548, NaN, NaN, NaN, 0.0274675, "- N/A -   "
1.21, 41.2816, 0.00213532, NaN, NaN, NaN, 0.0286883, "- N/A -   "
1.26, 42.4611, 0.00221585, NaN, NaN, NaN, 0.0299091, "- N/A -   "
1.31, 43.6406, 0.00228804, NaN, NaN, NaN, 0.0347922, "- N/A -   "
1.36, 44.93799, 0.002371346, NaN, NaN, NaN, 0.03601294, "- N/A -   "
1.41, 46.11746, 0.00245187, NaN, NaN, NaN, 0.03601294, "- N/A -   "
1.46, 47.2969, 0.0025324, NaN, NaN, NaN, 0.0384545, "- N/A -   "
1.51, 48.3585, 0.00260737, NaN, NaN, NaN, 0.04211683, "- N/A -   "
1.56, 49.6559, 0.00267957, NaN, NaN, NaN, 0.04577916, "- N/A -   "
1.61, 50.83536, 0.00276287, NaN, NaN, NaN, 0.04577916, "- N/A -   "
1.66, 52.25073, 0.002854501, NaN, NaN, NaN, 0.0433376, "- N/A -   "
1.71, 53.784, 0.00294613, NaN, NaN, NaN, 0.0396753, "- N/A -   "
1.76, 55.3174, 0.00303777, NaN, NaN, NaN, 0.0347922, "- N/A -   "
1.81, 56.6148, 0.00312662, NaN, NaN, NaN, 0.0323506, "- N/A -   "
1.86, 57.91221, 0.00320715, NaN, NaN, NaN, 0.0335714, "- N/A -   "
1.91, 59.2096, 0.00328767, NaN, NaN, NaN, 0.0347922, "- N/A -   "
1.96, 60.5071, 0.00337375, NaN, NaN, NaN, 0.0335714, "- N/A -   "
2.01, 61.9224, 0.00345983, NaN, NaN, NaN, 0.0323506, "- N/A -   "
2.06, 63.1019, 0.00353758, NaN, NaN, NaN, 0.0347922, "- N/A -   "
2.11, 64.28137, 0.003615331, NaN, NaN, NaN, 0.0372337, "- N/A -   "
2.16, 65.5788, 0.00369863, NaN, NaN, NaN, 0.0384545, "- N/A -   "
2.21, 66.75827, 0.003770829, NaN, NaN, NaN, 0.04211683, "- N/A -   "
2.26, 68.05569, 0.00385691, NaN, NaN, NaN, 0.04089605, "- N/A -   "
2.31, 69.35311, 0.00394299, NaN, NaN, NaN, 0.04089605, "- N/A -   "
2.36, 70.7685, 0.00403462, NaN, NaN, NaN, 0.0372337, "- N/A -   "
2.41, 72.1838, 0.0041207, NaN, NaN, NaN, 0.0347922, "- N/A -   "
2.46, 73.36333, 0.004206779, NaN, NaN, NaN, 0.0347922, "- N/A -   "
2.51, 74.66075, 0.004287305, NaN, NaN, NaN, 0.0347922, "- N/A -   "
2.56, 76.07612, 0.004376161, NaN, NaN, NaN, 0.0323506, "- N/A -   "
2.61, 77.37354, 0.004465017, NaN, NaN, NaN, 0.03112983, "- N/A -   "
2.66, 78.67096, 0.004545543, NaN, NaN, NaN, 0.03112983, "- N/A -   "
2.71, 79.73249, 0.004623292, NaN, NaN, NaN, 0.0335714, "- N/A -   "
2.76, 81.0299, 0.00470659, NaN, NaN, NaN, 0.0347922, "- N/A -   "
2.81, 82.44528, 0.00479545, NaN, NaN, NaN, 0.0323506, "- N/A -   "
2.86, 83.50681, 0.004864869, NaN, NaN, NaN, 0.0372337, "- N/A -   "
2.91, 84.56834, 0.004942619, NaN, NaN, NaN, 0.04089605, "- N/A -   "
2.96, 85.86576, 0.005017591, NaN, NaN, NaN, 0.0433376, "- N/A -   "
3.01, 87.16318, 0.005098117, NaN, NaN, NaN, 0.0445584, "- N/A -   "
3.06, 88.4606, 0.005181419, NaN, NaN, NaN, 0.0445584, "- N/A -   "
3.11, 89.87598, 0.00527305, NaN, NaN, NaN, 0.04211683, "- N/A -   "
3.16, 91.52724, 0.00536746, NaN, NaN, NaN, 0.03601294, "- N/A -   "
3.21, 93.0606, 0.00545632, NaN, NaN, NaN, 0.0335714, "- N/A -   "
3.26, 94.24, 0.00553684, NaN, NaN, NaN, 0.0347922, "- N/A -   "
3.31, 95.6554, 0.005622922, NaN, NaN, NaN, 0.0335714, "- N/A -   "
3.36, 97.07077, 0.00571456, NaN, NaN, NaN, 0.0299091, "- N/A -   "
3.41, 98.3682, 0.00579508, NaN, NaN, NaN, 0.03112983, "- N/A -   "
3.46, 99.66561, 0.00587561, NaN, NaN, NaN, 0.0323506, "- N/A -   "
3.51, 100.963, 0.00595613, NaN, NaN, NaN, 0.0335714, "- N/A -   "
3.56, 102.025, 0.006025552, NaN, NaN, NaN, 0.0396753, "- N/A -   "
3.61, 103.086, 0.00609775, NaN, NaN, NaN, 0.04577916, "- N/A -   "
3.66, 104.501, 0.00617272, NaN, NaN, NaN, 0.0494415, "- N/A -   "
3.71, 106.035, 0.006261576, NaN, NaN, NaN, 0.04699994, "- N/A -   "
3.76, 107.686, 0.006358762, NaN, NaN, NaN, 0.04089605, "- N/A -   "
3.81, 109.3373, 0.006453172, NaN, NaN, NaN, 0.03601294, "- N/A -   "
3.86, 110.753, 0.006544804, NaN, NaN, NaN, 0.0335714, "- N/A -   "
3.91, 112.168, 0.006630884, NaN, NaN, NaN, 0.0323506, "- N/A -   "
3.96, 113.701, 0.00672252, NaN, NaN, NaN, 0.0286883, "- N/A -   "
4.01, 115.117, 0.00680304, NaN, NaN, NaN, 0.0286883, "- N/A -   "
4.06, 116.5321, 0.00688634, NaN, NaN, NaN, 0.0286883, "- N/A -   "
4.11, 117.712, 0.006961317, NaN, NaN, NaN, 0.0323506, "- N/A -   "
[...]
30.28, 1128.44, 0.0505452, NaN, NaN, NaN, 0.04699994, "- N/A -   "
30.42, 1134.88, 0.05078679, NaN, NaN, NaN, 0.04211683, "- N/A -   "
30.56, 1141.55, 0.05104781, NaN, NaN, NaN, 0.0299091, "- N/A -   "
30.7, 1147.64, 0.0512811, NaN, NaN, NaN, 0.03112983, "- N/A -   "
30.84, 1153.121, 0.0514921, NaN, NaN, NaN, 0.04089605, "- N/A -   "
30.98, 1158.61, 0.0517087, NaN, NaN, NaN, 0.0482207, "- N/A -   "
31.12, 1165.76, 0.0519752, NaN, NaN, NaN, 0.0335714, "- N/A -   "
31.26, 1172.32, 0.0522224, NaN, NaN, NaN, 0.0274675, "- N/A -   "
31.4, 1178.04, 0.05245007, NaN, NaN, NaN, 0.0299091, "- N/A -   "
31.54, 1183.05, 0.0526472, NaN, NaN, NaN, 0.04577916, "- N/A -   "
31.68, 1189.37, 0.05288324, NaN, NaN, NaN, 0.0445584, "- N/A -   "
31.82, 1196.29, 0.0531443, NaN, NaN, NaN, 0.0335714, "- N/A -   "
31.96, 1202.25, 0.0533747, NaN, NaN, NaN, 0.0335714, "- N/A -   "
32.1, 1208.22, 0.05360242, NaN, NaN, NaN, 0.0372337, "- N/A -   "
32.24, 1213.94, 0.053819, NaN, NaN, NaN, 0.0433376, "- N/A -   "
32.38, 1219.9, 0.05405503, NaN, NaN, NaN, 0.04211683, "- N/A -   "
32.52, 1227.06, 0.0543188, NaN, NaN, NaN, 0.0299091, "- N/A -   "
32.66, 1232.66, 0.0545382, NaN, NaN, NaN, 0.03601294, "- N/A -   "
32.8, 1239.22, 0.05477976, NaN, NaN, NaN, 0.0323506, "- N/A -   "
32.94, 1244.468, 0.054988, NaN, NaN, NaN, 0.04211683, "- N/A -   "
33.08, 1250.79, 0.0552296, NaN, NaN, NaN, 0.0396753, "- N/A -   "
33.22, 1257.228, 0.0554684, NaN, NaN, NaN, 0.0372337, "- N/A -   "
33.36, 1263.43, 0.0557072, NaN, NaN, NaN, 0.0347922, "- N/A -   "
33.5, 1269.51, 0.0559432, NaN, NaN, NaN, 0.0335714, "- N/A -   "
33.64, 1275.12, 0.0561598, NaN, NaN, NaN, 0.04089605, "- N/A -   "
33.78, 1281.08, 0.0563847, NaN, NaN, NaN, 0.0433376, "- N/A -   "
33.92, 1288, 0.0566485, NaN, NaN, NaN, 0.03112983, "- N/A -   "
34.06, 1294.2, 0.05688454, NaN, NaN, NaN, 0.0286883, "- N/A -   "
34.2, 1300.278, 0.0571122, NaN, NaN, NaN, 0.0323506, "- N/A -   "
34.34, 1305.17, 0.0573122, NaN, NaN, NaN, 0.04577916, "- N/A -   "
34.48, 1311.73, 0.0575565, NaN, NaN, NaN, 0.04089605, "- N/A -   "
34.62, 1318.17, 0.05780642, NaN, NaN, NaN, 0.0335714, "- N/A -   "
34.76, 1324.61, 0.0580508, NaN, NaN, NaN, 0.0299091, "- N/A -   "
34.9, 1329.97, 0.058259, NaN, NaN, NaN, 0.04089605, "- N/A -   "
35.04, 1335.93, 0.0584867, NaN, NaN, NaN, 0.04211683, "- N/A -   "
35.18, 1342.37, 0.0587339, NaN, NaN, NaN, 0.03601294, "- N/A -   "
35.32, 1349.17, 0.0589921, NaN, NaN, NaN, 0.0262467, "- N/A -   "
35.46, 1354.657, 0.0592031, NaN, NaN, NaN, 0.0372337, "- N/A -   "
35.6, 1360.74, 0.0594336, NaN, NaN, NaN, 0.0372337, "- N/A -   "
35.74, 1366.22, 0.05964463, NaN, NaN, NaN, 0.0482207, "- N/A -   "
35.88, 1373.26, 0.0599112, NaN, NaN, NaN, 0.0335714, "- N/A -   "
36.02, 1378.865, 0.0601278, NaN, NaN, NaN, 0.0396753, "- N/A -   "
36.16, 1385.424, 0.0603777, NaN, NaN, NaN, 0.0335714, "- N/A -   "
36.3, 1390.91, 0.0605915, NaN, NaN, NaN, 0.04089605, "- N/A -   "
36.44, 1397.23, 0.0608275, NaN, NaN, NaN, 0.04089605, "- N/A -   "
36.58, 1403.55, 0.0610691, NaN, NaN, NaN, 0.03601294, "- N/A -   "
36.72, 1409.87, 0.0613135, NaN, NaN, NaN, 0.03112983, "- N/A -   "
36.86, 1415.83, 0.0615384, NaN, NaN, NaN, 0.0347922, "- N/A -   "
37, 1421.68, 0.06176607, NaN, NaN, NaN, 0.0372337, "- N/A -   "
37.14, 1427.28, 0.06197988, NaN, NaN, NaN, 0.04577916, "- N/A -   "
37.28, 1434.08, 0.0622381, NaN, NaN, NaN, 0.03601294, "- N/A -   "
37.42, 1440.16, 0.0624714, NaN, NaN, NaN, 0.0347922, "- N/A -   "
37.56, 1446.48, 0.06271294, NaN, NaN, NaN, 0.0323506, "- N/A -   "
37.7, 1451.728, 0.0629212, NaN, NaN, NaN, 0.04211683, "- N/A -   "
37.796, 1455.544, 0.06307114, NaN, NaN, NaN, 0.04699994, "- N/A -   "

File: Hamel_ForceTest_Bolt5_Test9.csv
Time, Load (lb), Position (in), AxialStrain (in), TransverseStrain (in), Auxiliary (), Control Out (V), Stress (psi)
0.0, 13.3281, 0.0, NaN, NaN, NaN, -0.007935055, "- N/A -   "
0.01, 13.3281, 0.0, NaN, NaN, NaN, -6.103888E-4, "- N/A -   "
0.02, 13.2101, 0.0, NaN, NaN, NaN, 0.007935055, "- N/A -   "
0.03, 13.2101, 2.776752E-6, NaN, NaN, NaN, 0.0274675, "- N/A -   "
0.04, 13.3281, 5.553504E-6, NaN, NaN, NaN, 0.0445584, "- N/A -   "
0.05, 13.446, 1.66605e-05, NaN, NaN, NaN, 0.0592077, "- N/A -   "
0.06, 13.6819, 3.3321e-05, NaN, NaN, NaN, 0.07141549, "- N/A -   "
0.07, 14.0357, 5.5535e-05, NaN, NaN, NaN, 0.08118171, "- N/A -   "
0.08, 14.5075, 8.05258E-5, NaN, NaN, NaN, 0.0897272, "- N/A -   "
0.09, 15.0973, 0.000108293, NaN, NaN, NaN, 0.09705182, "- N/A -   "
0.1, 15.5691, 0.000141614, NaN, NaN, NaN, 0.0982726, "- N/A -   "
0.11, 16.1588, 0.000172159, NaN, NaN, NaN, 0.09216871, "- N/A -   "
0.12, 16.6306, 0.000199926, NaN, NaN, NaN, 0.08606482, "- N/A -   "
0.13, 17.1024, 2.304704E-4, NaN, NaN, NaN, 0.08118171, "- N/A -   "
0.14, 17.5742, 0.000255461, NaN, NaN, NaN, 0.0762986, "- N/A -   "
0.15, 17.8101, 2.776752E-4, NaN, NaN, NaN, 0.07385705, "- N/A -   "
0.16, 18.16391, 2.998892E-4, NaN, NaN, NaN, 0.07141549, "- N/A -   "
0.17, 18.5178, 3.165497E-4, NaN, NaN, NaN, 0.07141549, "- N/A -   "
0.18, 18.7536, 0.000335987, NaN, NaN, NaN, 0.0701947, "- N/A -   "
0.19, 19.1075, 0.000358201, NaN, NaN, NaN, 0.0689739, "- N/A -   "
0.2, 19.3434, 3.748615E-4, NaN, NaN, NaN, 0.06775316, "- N/A -   "
0.21, 19.8152, 0.000394299, NaN, NaN, NaN, 0.06653238, "- N/A -   "
0.22, 20.05107, 4.13736E-4, NaN, NaN, NaN, 0.0653116, "- N/A -   "
0.23, 20.4049, 4.331733E-4, NaN, NaN, NaN, 0.0640908, "- N/A -   "
0.24, 20.6408, 0.000452611, NaN, NaN, NaN, 0.0640908, "- N/A -   "
0.25, 21.1126, 4.720478E-4, NaN, NaN, NaN, 0.06287005, "- N/A -   "
0.26, 21.3485, 4.887083E-4, NaN, NaN, NaN, 0.06164927, "- N/A -   "
0.27, 21.5844, 5.081456E-4, NaN, NaN, NaN, 0.0604285, "- N/A -   "
0.28, 21.93823, 0.000527583, NaN, NaN, NaN, 0.0592077, "- N/A -   "
0.29, 22.1741, 0.000549797, NaN, NaN, NaN, 0.0579869, "- N/A -   "
0.3, 22.528, 0.000569234, NaN, NaN, NaN, 0.05676616, "- N/A -   "
0.31, 22.88181, 0.000588671, NaN, NaN, NaN, 0.0555454, "- N/A -   "
0.32, 23.1177, 0.000608109, NaN, NaN, NaN, 0.0531038, "- N/A -   "
0.33, 23.4715, 0.000627546, NaN, NaN, NaN, 0.05188305, "- N/A -   "
0.34, 23.82539, 6.497599E-4, NaN, NaN, NaN, 0.0494415, "- N/A -   "
0.35, 24.1792, 6.691972E-4, NaN, NaN, NaN, 0.0482207, "- N/A -   "
0.36, 24.5331, 0.000688634, NaN, NaN, NaN, 0.04699994, "- N/A -   "
0.37, 24.8869, 7.080717E-4, NaN, NaN, NaN, 0.04577916, "- N/A -   "
0.38, 25.1228, 7.27509E-4, NaN, NaN, NaN, 0.0445584, "- N/A -   "
0.39, 25.3587, 0.000744169, NaN, NaN, NaN, 0.0445584, "- N/A -   "
0.4, 25.7125, 7.663835E-4, NaN, NaN, NaN, 0.0433376, "- N/A -   "
0.41, 26.0664, 0.000785821, NaN, NaN, NaN, 0.04211683, "- N/A -   "
0.42, 26.3023, 0.000802481, NaN, NaN, NaN, 0.04089605, "- N/A -   "
0.43, 26.6561, 0.000821919, NaN, NaN, NaN, 0.04089605, "- N/A -   "
0.44, 27.01, 8.38579E-4, NaN, NaN, NaN, 0.0396753, "- N/A -   "
0.45, 27.2459, 8.580163E-4, NaN, NaN, NaN, 0.0396753, "- N/A -   "
0.46, 27.4818, 8.746768E-4, NaN, NaN, NaN, 0.0384545, "- N/A -   "
0.47, 27.7177, 8.941141E-4, NaN, NaN, NaN, 0.0384545, "- N/A -   "
0.48, 28.0715, 0.000907998, NaN, NaN, NaN, 0.0384545, "- N/A -   "
0.49, 28.3074, 9.274351E-4, NaN, NaN, NaN, 0.0372337, "- N/A -   "
0.5, 28.6612, 0.000946872, NaN, NaN, NaN, 0.03601294, "- N/A -   "
0.51, 28.89713, 9.663096E-4, NaN, NaN, NaN, 0.0347922, "- N/A -   "
0.52, 29.251, 9.857469E-4, NaN, NaN, NaN, 0.0335714, "- N/A -   "
0.53, 29.4869, 0.00100518, NaN, NaN, NaN, 0.0335714, "- N/A -   "
0.68, 33.49708, 0.00125509, NaN, NaN, NaN, 0.0323506, "- N/A -   "
0.83, 37.0355, 0.00148279, NaN, NaN, NaN, 0.04211683, "- N/A -   "
0.98, 40.8098, 0.00172714, NaN, NaN, NaN, 0.0445584, "- N/A -   "
1.13, 45.17388, 0.00201037, NaN, NaN, NaN, 0.0299091, "- N/A -   "
1.28, 48.9482, 0.0022575, NaN, NaN, NaN, 0.03112983, "- N/A -   "
1.43, 52.84047, 0.00250185, NaN, NaN, NaN, 0.0335714, "- N/A -   "
1.58, 56.37889, 0.00272677, NaN, NaN, NaN, 0.0445584, "- N/A -   "
1.73, 60.97884, 0.00299612, NaN, NaN, NaN, 0.03601294, "- N/A -   "
1.88, 65.107, 0.0032488, NaN, NaN, NaN, 0.03601294, "- N/A -   "
2.03, 69.35311, 0.00350426, NaN, NaN, NaN, 0.0335714, "- N/A -   "
2.18, 73.48127, 0.00373751, NaN, NaN, NaN, 0.0396753, "- N/A -   "
2.33, 78.08122, 0.003992969, NaN, NaN, NaN, 0.0384545, "- N/A -   "
2.48, 82.56323, 0.00424565, NaN, NaN, NaN, 0.03601294, "- N/A -   "
2.63, 87.28113, 0.00450667, NaN, NaN, NaN, 0.03112983, "- N/A -   "
2.78, 91.88108, 0.004756576, NaN, NaN, NaN, 0.0323506, "- N/A -   "
2.93, 96.24514, 0.004987046, NaN, NaN, NaN, 0.0396753, "- N/A -   "
3.08, 100.727, 0.00522862, NaN, NaN, NaN, 0.0445584, "- N/A -   "
3.23, 105.917, 0.00549797, NaN, NaN, NaN, 0.0347922, "- N/A -   "
3.38, 110.871, 0.00575898, NaN, NaN, NaN, 0.0299091, "- N/A -   "
3.53, 115.117, 0.00599223, NaN, NaN, NaN, 0.0372337, "- N/A -   "
3.68, 119.599, 0.006228254, NaN, NaN, NaN, 0.0445584, "- N/A -   "
3.83, 124.906, 0.006500376, NaN, NaN, NaN, 0.0347922, "- N/A -   "
3.98, 129.624, 0.006761391, NaN, NaN, NaN, 0.03112983, "- N/A -   "
4.13, 133.87, 0.00700297, NaN, NaN, NaN, 0.0347922, "- N/A -   "
4.28, 137.999, 0.00722789, NaN, NaN, NaN, 0.0445584, "- N/A -   "
4.43, 142.716, 0.00748335, NaN, NaN, NaN, 0.0433376, "- N/A -   "
4.58, 147.788, 0.007755468, NaN, NaN, NaN, 0.0335714, "- N/A -   "
4.73, 152.27, 0.007997045, NaN, NaN, NaN, 0.03601294, "- N/A -   "
4.88, 156.87, 0.008244176, NaN, NaN, NaN, 0.0384545, "- N/A -   "
5.03, 161.352, 0.008480201, NaN, NaN, NaN, 0.0433376, "- N/A -   "
5.18, 166.542, 0.008757875, NaN, NaN, NaN, 0.03112983, "- N/A -   "
5.33, 171.024, 0.008996676, NaN, NaN, NaN, 0.0372337, "- N/A -   "
5.48, 176.096, 0.009252137, NaN, NaN, NaN, 0.0335714, "- N/A -   "
5.63, 180.342, 0.009485384, NaN, NaN, NaN, 0.04089605, "- N/A -   "
5.78, 185.178, 0.009740846, NaN, NaN, NaN, 0.0396753, "- N/A -   "
5.93, 190.249, 0.009996306, NaN, NaN, NaN, 0.0372337, "- N/A -   "
6.08, 195.203, 0.0102518, NaN, NaN, NaN, 0.0347922, "- N/A -   "
6.23, 199.921, 0.0104989, NaN, NaN, NaN, 0.0347922, "- N/A -   "
6.38, 204.521, 0.0107349, NaN, NaN, NaN, 0.04089605, "- N/A -   "
6.53, 209.829, 0.0109959, NaN, NaN, NaN, 0.03601294, "- N/A -   "
6.68, 214.782, 0.0112542, NaN, NaN, NaN, 0.0323506, "- N/A -   "
6.83, 219.8541, 0.0115124, NaN, NaN, NaN, 0.0299091, "- N/A -   "
6.98, 224.1002, 0.0117318, NaN, NaN, NaN, 0.04211683, "- N/A -   "
7.13, 229.054, 0.0119817, NaN, NaN, NaN, 0.0433376, "- N/A -   "
7.28, 234.126, 0.012251, NaN, NaN, NaN, 0.0347922, "- N/A -   "
7.43, 239.551, 0.012512, NaN, NaN, NaN, 0.0299091, "- N/A -   "
7.58, 244.032, 0.0127397, NaN, NaN, NaN, 0.0384545, "- N/A -   "
7.73, 248.863, 0.0129841, NaN, NaN, NaN, 0.04089605, "- N/A -   "
7.88, 254.283, 0.0132479, NaN, NaN, NaN, 0.0347922, "- N/A -   "
8.03, 259.7026, 0.0135145, NaN, NaN, NaN, 0.0274675, "- N/A -   "
8.18, 264.416, 0.0137477, NaN, NaN, NaN, 0.0372337, "- N/A -   "
8.33, 269.364, 0.0139837, NaN, NaN, NaN, 0.04211683, "- N/A -   "
8.48, 274.431, 0.0142336, NaN, NaN, NaN, 0.0433376, "- N/A -   "
8.63, 280.322, 0.0145085, NaN, NaN, NaN, 0.03112983, "- N/A -   "
[...]
38.53, 1540.09, 0.0643124, NaN, NaN, NaN, 0.0445584, "- N/A -   "
38.55, 1541.05, 0.06434567, NaN, NaN, NaN, 0.0445584, "- N/A -   "
38.57, 1542, 0.06437899, NaN, NaN, NaN, 0.0433376, "- N/A -   "
38.59, 1543.075, 0.06441787, NaN, NaN, NaN, 0.04089605, "- N/A -   "
38.61, 1544.27, 0.06445952, NaN, NaN, NaN, 0.0384545, "- N/A -   "
38.63, 1545.34, 0.0645012, NaN, NaN, NaN, 0.0335714, "- N/A -   "
38.65, 1546.65, 0.0645456, NaN, NaN, NaN, 0.0299091, "- N/A -   "
38.67, 1547.61, 0.0645817, NaN, NaN, NaN, 0.0274675, "- N/A -   "
38.69, 1548.56, 0.0646178, NaN, NaN, NaN, 0.0262467, "- N/A -   "
38.71, 1549.51, 0.06465112, NaN, NaN, NaN, 0.0274675, "- N/A -   "
38.73, 1550.23, 0.06468166, NaN, NaN, NaN, 0.0274675, "- N/A -   "
38.75, 1551.065, 0.0647122, NaN, NaN, NaN, 0.0286883, "- N/A -   "
38.77, 1551.78, 0.06473997, NaN, NaN, NaN, 0.03112983, "- N/A -   "
38.79, 1552.62, 0.06477051, NaN, NaN, NaN, 0.0335714, "- N/A -   "
38.81, 1553.33, 0.06479828, NaN, NaN, NaN, 0.0347922, "- N/A -   "
38.83, 1554.17, 0.06482883, NaN, NaN, NaN, 0.03601294, "- N/A -   "
38.85, 1555, 0.06486215, NaN, NaN, NaN, 0.0372337, "- N/A -   "
38.87, 1556.07, 0.06489547, NaN, NaN, NaN, 0.03601294, "- N/A -   "
38.89, 1556.91, 0.06492879, NaN, NaN, NaN, 0.03601294, "- N/A -   "
38.91, 1557.86, 0.06496211, NaN, NaN, NaN, 0.03601294, "- N/A -   "
38.93, 1558.697, 0.06499543, NaN, NaN, NaN, 0.03601294, "- N/A -   "
38.95, 1559.41, 0.06502598, NaN, NaN, NaN, 0.0372337, "- N/A -   "
38.97, 1560.37, 0.0650593, NaN, NaN, NaN, 0.0372337, "- N/A -   "
38.99, 1561.44, 0.06509262, NaN, NaN, NaN, 0.0372337, "- N/A -   "
39.01, 1562.04, 0.06512316, NaN, NaN, NaN, 0.0384545, "- N/A -   "
39.03, 1562.99, 0.0651537, NaN, NaN, NaN, 0.0396753, "- N/A -   "
39.05, 1563.71, 0.06518425, NaN, NaN, NaN, 0.04089605, "- N/A -   "
39.07, 1564.54, 0.0652148, NaN, NaN, NaN, 0.04211683, "- N/A -   "
39.09, 1565.38, 0.06524534, NaN, NaN, NaN, 0.0433376, "- N/A -   "
39.11, 1566.33, 0.06527866, NaN, NaN, NaN, 0.0445584, "- N/A -   "
39.13, 1567.164, 0.0653092, NaN, NaN, NaN, 0.04577916, "- N/A -   "
39.15, 1567.88, 0.06534253, NaN, NaN, NaN, 0.0445584, "- N/A -   "
39.17, 1568.83, 0.06537585, NaN, NaN, NaN, 0.0445584, "- N/A -   "
39.19, 1569.91, 0.06541473, NaN, NaN, NaN, 0.04211683, "- N/A -   "
39.21, 1571.1, 0.06545637, NaN, NaN, NaN, 0.0396753, "- N/A -   "
39.23, 1572.17, 0.0654952, NaN, NaN, NaN, 0.03601294, "- N/A -   "
39.25, 1573.25, 0.06553412, NaN, NaN, NaN, 0.0335714, "- N/A -   "
39.27, 1574.2, 0.06557022, NaN, NaN, NaN, 0.0323506, "- N/A -   "
39.29, 1575.39, 0.0656091, NaN, NaN, NaN, 0.0299091, "- N/A -   "
39.31, 1576.47, 0.065648, NaN, NaN, NaN, 0.0274675, "- N/A -   "
39.33, 1577.3, 0.06568407, NaN, NaN, NaN, 0.0262467, "- N/A -   "
39.35, 1578.14, 0.06571461, NaN, NaN, NaN, 0.0274675, "- N/A -   "
39.37, 1578.85, 0.06574515, NaN, NaN, NaN, 0.0286883, "- N/A -   "
39.39, 1579.69, 0.0657757, NaN, NaN, NaN, 0.0299091, "- N/A -   "
39.41, 1580.4, 0.06580347, NaN, NaN, NaN, 0.0323506, "- N/A -   "
39.43, 1581.24, 0.06583124, NaN, NaN, NaN, 0.0347922, "- N/A -   "
39.45, 1581.95, 0.0658618, NaN, NaN, NaN, 0.03601294, "- N/A -   "
39.47, 1582.91, 0.0658951, NaN, NaN, NaN, 0.03601294, "- N/A -   "
39.49, 1583.74, 0.0659312, NaN, NaN, NaN, 0.03601294, "- N/A -   "
39.51, 1584.93, 0.0659673, NaN, NaN, NaN, 0.0335714, "- N/A -   "
39.53, 1585.89, 0.0660034, NaN, NaN, NaN, 0.0323506, "- N/A -   "
39.55, 1586.72, 0.0660367, NaN, NaN, NaN, 0.0323506, "- N/A -   "
39.57, 1587.556, 0.0660673, NaN, NaN, NaN, 0.0335714, "- N/A -   "
39.575, 1587.79, 0.06607559, NaN, NaN, NaN, 0.0347922, "- N/A -   "