Folder: DigitalTwins-Machine-Learning/2_Tensile_Data (part 27)

File: Hamel_ForceTest_Bolt7_Test8.csv
Time, Load (lb), Position (in), AxialStrain (in), TransverseStrain (in), Auxiliary (), Control Out (V), Stress (psi)
0.0, 10.26143, 0.0, NaN, NaN, NaN, -0.007935055, "- N/A -   "
0.01, 10.26143, 0.0, NaN, NaN, NaN, -6.103888E-4, "- N/A -   "
0.02, 10.26143, 0.0, NaN, NaN, NaN, 0.006714277, "- N/A -   "
0.03, 10.3794, 0.0, NaN, NaN, NaN, 0.0238052, "- N/A -   "
0.04, 10.26143, 2.776752E-6, NaN, NaN, NaN, 0.04211683, "- N/A -   "
0.05, 10.4973, 1.38838e-05, NaN, NaN, NaN, 0.05676616, "- N/A -   "
0.06, 10.8512, 3.054427E-5, NaN, NaN, NaN, 0.0689739, "- N/A -   "
0.07, 11.323, 4.99815e-05, NaN, NaN, NaN, 0.0799609, "- N/A -   "
0.08, 11.7947, 7.49723E-5, NaN, NaN, NaN, 0.0897272, "- N/A -   "
0.09, 12.3845, 9.99631e-05, NaN, NaN, NaN, 0.09705182, "- N/A -   "
0.1, 12.9742, 0.000130507, NaN, NaN, NaN, 0.100714, "- N/A -   "
0.11, 13.7999, 0.000163828, NaN, NaN, NaN, 0.09461027, "- N/A -   "
0.12, 14.3896, 0.000191596, NaN, NaN, NaN, 0.08850638, "- N/A -   "
0.13, 14.9793, 2.193634E-4, NaN, NaN, NaN, 0.08362327, "- N/A -   "
0.14, 15.4511, 0.000244354, NaN, NaN, NaN, 0.0799609, "- N/A -   "
0.15, 16.0409, 0.000269345, NaN, NaN, NaN, 0.0762986, "- N/A -   "
0.16, 16.6306, 0.000294336, NaN, NaN, NaN, 0.07263627, "- N/A -   "
0.17, 16.9844, 3.165497E-4, NaN, NaN, NaN, 0.07141549, "- N/A -   "
0.18, 17.5742, 0.000335987, NaN, NaN, NaN, 0.0701947, "- N/A -   "
0.19, 17.8101, 0.000355424, NaN, NaN, NaN, 0.0689739, "- N/A -   "
0.2, 18.16391, 3.748615E-4, NaN, NaN, NaN, 0.06653238, "- N/A -   "
0.21, 18.6357, 0.000394299, NaN, NaN, NaN, 0.0653116, "- N/A -   "
0.22, 18.9895, 4.13736E-4, NaN, NaN, NaN, 0.0640908, "- N/A -   "
0.23, 19.4613, 4.331733E-4, NaN, NaN, NaN, 0.06287005, "- N/A -   "
0.24, 19.8152, 0.000449834, NaN, NaN, NaN, 0.06287005, "- N/A -   "
0.25, 20.169, 4.720478E-4, NaN, NaN, NaN, 0.0604285, "- N/A -   "
0.26, 20.6408, 0.000491485, NaN, NaN, NaN, 0.0592077, "- N/A -   "
0.54, 31.1381, 0.00102184, NaN, NaN, NaN, 0.0323506, "- N/A -   "
0.82, 39.8662, 0.00145224, NaN, NaN, NaN, 0.04699994, "- N/A -   "
1.1, 50.83536, 0.00196316, NaN, NaN, NaN, 0.0274675, "- N/A -   "
1.38, 60.8609, 0.002404667, NaN, NaN, NaN, 0.0384545, "- N/A -   "
1.66, 71.12233, 0.00286005, NaN, NaN, NaN, 0.0433376, "- N/A -   "
1.94, 82.20939, 0.00334043, NaN, NaN, NaN, 0.0372337, "- N/A -   "
2.22, 92.82466, 0.0037986, NaN, NaN, NaN, 0.04089605, "- N/A -   "
2.5, 103.912, 0.004284528, NaN, NaN, NaN, 0.0335714, "- N/A -   "
2.78, 114.999, 0.00474825, NaN, NaN, NaN, 0.0347922, "- N/A -   "
3.06, 125.378, 0.00519253, NaN, NaN, NaN, 0.0445584, "- N/A -   "
3.34, 137.291, 0.00568401, NaN, NaN, NaN, 0.0323506, "- N/A -   "
3.62, 147.552, 0.00611996, NaN, NaN, NaN, 0.0482207, "- N/A -   "
3.9, 159.701, 0.006619776, NaN, NaN, NaN, 0.0323506, "- N/A -   "
4.18, 170.4341, 0.00706683, NaN, NaN, NaN, 0.04089605, "- N/A -   "
4.46, 181.757, 0.00753333, NaN, NaN, NaN, 0.04089605, "- N/A -   "
4.74, 193.5518, 0.008010929, NaN, NaN, NaN, 0.03601294, "- N/A -   "
5.02, 204.639, 0.008457986, NaN, NaN, NaN, 0.0445584, "- N/A -   "
5.3, 216.905, 0.008952248, NaN, NaN, NaN, 0.0335714, "- N/A -   "
5.58, 227.875, 0.009399306, NaN, NaN, NaN, 0.04089605, "- N/A -   "
5.86, 239.787, 0.009871353, NaN, NaN, NaN, 0.0384545, "- N/A -   "
6.14, 251.5726, 0.0103517, NaN, NaN, NaN, 0.0335714, "- N/A -   "
6.42, 262.648, 0.010796, NaN, NaN, NaN, 0.04211683, "- N/A -   "
6.7, 274.784, 0.0112847, NaN, NaN, NaN, 0.0335714, "- N/A -   "
6.98, 285.7422, 0.011729, NaN, NaN, NaN, 0.04211683, "- N/A -   "
7.26, 297.525, 0.0122122, NaN, NaN, NaN, 0.0347922, "- N/A -   "
7.54, 308.718, 0.0126786, NaN, NaN, NaN, 0.0347922, "- N/A -   "
7.82, 319.323, 0.013134, NaN, NaN, NaN, 0.0396753, "- N/A -   "
8.1, 330.987, 0.0136255, NaN, NaN, NaN, 0.0299091, "- N/A -   "
8.38, 341.12, 0.0140587, NaN, NaN, NaN, 0.0445584, "- N/A -   "
8.66, 352.785, 0.014553, NaN, NaN, NaN, 0.0323506, "- N/A -   "
8.94, 363.3896, 0.0150083, NaN, NaN, NaN, 0.0372337, "- N/A -   "
9.22, 374.8187, 0.0154804, NaN, NaN, NaN, 0.0347922, "- N/A -   "
9.5, 386.012, 0.0159552, NaN, NaN, NaN, 0.03112983, "- N/A -   "
9.78, 396.263, 0.01639672, NaN, NaN, NaN, 0.0433376, "- N/A -   "
10.06, 408.163, 0.0168827, NaN, NaN, NaN, 0.0347922, "- N/A -   "
10.34, 419.121, 0.0173436, NaN, NaN, NaN, 0.03601294, "- N/A -   "
10.62, 430.786, 0.01781564, NaN, NaN, NaN, 0.0335714, "- N/A -   "
10.9, 442.333, 0.0182905, NaN, NaN, NaN, 0.0299091, "- N/A -   "
11.18, 452.702, 0.0187236, NaN, NaN, NaN, 0.0445584, "- N/A -   "
11.46, 464.956, 0.0192235, NaN, NaN, NaN, 0.0299091, "- N/A -   "
11.74, 475.913, 0.019665, NaN, NaN, NaN, 0.04089605, "- N/A -   "
12.02, 488.403, 0.020162, NaN, NaN, NaN, 0.0274675, "- N/A -   "
12.3, 499.4787, 0.0206146, NaN, NaN, NaN, 0.0335714, "- N/A -   "
12.58, 510.672, 0.02106444, NaN, NaN, NaN, 0.04089605, "- N/A -   "
12.86, 522.8442, 0.02155315, NaN, NaN, NaN, 0.0323506, "- N/A -   "
13.14, 534.199, 0.022003, NaN, NaN, NaN, 0.0396753, "- N/A -   "
13.42, 546.619, 0.0224889, NaN, NaN, NaN, 0.0323506, "- N/A -   "
13.7, 558.3284, 0.0229526, NaN, NaN, NaN, 0.0323506, "- N/A -   "
13.98, 569.329, 0.0233969, NaN, NaN, NaN, 0.0433376, "- N/A -   "
14.26, 582.103, 0.0238884, NaN, NaN, NaN, 0.03112983, "- N/A -   "
14.54, 593.2213, 0.0243299, NaN, NaN, NaN, 0.04211683, "- N/A -   "
14.82, 606.1139, 0.0248242, NaN, NaN, NaN, 0.0299091, "- N/A -   "
15.1, 617.8237, 0.0252795, NaN, NaN, NaN, 0.0347922, "- N/A -   "
15.38, 630.007, 0.0257433, NaN, NaN, NaN, 0.03601294, "- N/A -   "
15.66, 642.4261, 0.0262181, NaN, NaN, NaN, 0.0323506, "- N/A -   "
15.94, 654.2542, 0.0266707, NaN, NaN, NaN, 0.0384545, "- N/A -   "
16.22, 666.792, 0.0271483, NaN, NaN, NaN, 0.0347922, "- N/A -   "
16.5, 679.093, 0.0276148, NaN, NaN, NaN, 0.0335714, "- N/A -   "
16.78, 691.2761, 0.028073, NaN, NaN, NaN, 0.0372337, "- N/A -   "
17.06, 704.287, 0.0285589, NaN, NaN, NaN, 0.0299091, "- N/A -   "
17.34, 715.6419, 0.02898929, NaN, NaN, NaN, 0.04577916, "- N/A -   "
17.62, 729.126, 0.0294891, NaN, NaN, NaN, 0.03112983, "- N/A -   "
17.9, 740.481, 0.0299223, NaN, NaN, NaN, 0.04577916, "- N/A -   "
18.18, 754.0832, 0.03042487, NaN, NaN, NaN, 0.0299091, "- N/A -   "
18.46, 766.0296, 0.03086915, NaN, NaN, NaN, 0.04089605, "- N/A -   "
18.74, 778.804, 0.0313384, NaN, NaN, NaN, 0.0384545, "- N/A -   "
19.02, 791.5783, 0.0318132, NaN, NaN, NaN, 0.03601294, "- N/A -   "
19.3, 803.6429, 0.0322659, NaN, NaN, NaN, 0.04089605, "- N/A -   "
19.58, 816.772, 0.0327435, NaN, NaN, NaN, 0.03601294, "- N/A -   "
19.86, 829.4281, 0.03321, NaN, NaN, NaN, 0.03601294, "- N/A -   "
20.14, 841.9659, 0.0336681, NaN, NaN, NaN, 0.04089605, "- N/A -   "
20.42, 855.0951, 0.0341568, NaN, NaN, NaN, 0.0299091, "- N/A -   "
20.7, 866.5683, 0.0345872, NaN, NaN, NaN, 0.04577916, "- N/A -   "
20.98, 880.289, 0.035087, NaN, NaN, NaN, 0.03112983, "- N/A -   "
21.26, 892.117, 0.03552576, NaN, NaN, NaN, 0.0433376, "- N/A -   "
21.54, 905.364, 0.03601447, NaN, NaN, NaN, 0.0347922, "- N/A -   "
21.82, 917.9022, 0.0364754, NaN, NaN, NaN, 0.0372337, "- N/A -   "
22.1, 930.2034, 0.03691969, NaN, NaN, NaN, 0.04699994, "- N/A -   "
22.38, 943.569, 0.03741118, NaN, NaN, NaN, 0.0372337, "- N/A -   "
22.66, 955.7521, 0.0378582, NaN, NaN, NaN, 0.0445584, "- N/A -   "
22.94, 969.3544, 0.03834972, NaN, NaN, NaN, 0.0335714, "- N/A -   "
[...]
26.3, 1124.26, 0.0439421, NaN, NaN, NaN, 0.0372337, "- N/A -   "
26.58, 1137.499, 0.0444169, NaN, NaN, NaN, 0.0347922, "- N/A -   "
26.86, 1149.9, 0.0448612, NaN, NaN, NaN, 0.0433376, "- N/A -   "
27.14, 1163.62, 0.04534436, NaN, NaN, NaN, 0.03601294, "- N/A -   "
27.42, 1175.78, 0.04578864, NaN, NaN, NaN, 0.04577916, "- N/A -   "
27.7, 1189.97, 0.0462885, NaN, NaN, NaN, 0.0323506, "- N/A -   "
27.98, 1202.97, 0.0467522, NaN, NaN, NaN, 0.0323506, "- N/A -   "
28.26, 1215.25, 0.0471965, NaN, NaN, NaN, 0.04211683, "- N/A -   "
28.54, 1229.2, 0.0476879, NaN, NaN, NaN, 0.0323506, "- N/A -   "
28.82, 1241.37, 0.04812944, NaN, NaN, NaN, 0.0433376, "- N/A -   "
29.1, 1255.56, 0.0486182, NaN, NaN, NaN, 0.0323506, "- N/A -   "
29.38, 1268.32, 0.0490763, NaN, NaN, NaN, 0.03601294, "- N/A -   "
29.66, 1281.32, 0.04954003, NaN, NaN, NaN, 0.0372337, "- N/A -   "
29.94, 1294.91, 0.0500232, NaN, NaN, NaN, 0.0299091, "- N/A -   "
30.22, 1307.19, 0.05046469, NaN, NaN, NaN, 0.04089605, "- N/A -   "
30.5, 1320.91, 0.05094507, NaN, NaN, NaN, 0.03601294, "- N/A -   "
30.78, 1334.03, 0.0514088, NaN, NaN, NaN, 0.0372337, "- N/A -   "
31.06, 1347.144, 0.05187528, NaN, NaN, NaN, 0.0372337, "- N/A -   "
31.34, 1360.74, 0.0523584, NaN, NaN, NaN, 0.0299091, "- N/A -   "
31.62, 1372.78, 0.0527916, NaN, NaN, NaN, 0.04577916, "- N/A -   "
31.9, 1387.09, 0.0532914, NaN, NaN, NaN, 0.03112983, "- N/A -   "
32.18, 1399.73, 0.0537357, NaN, NaN, NaN, 0.0396753, "- N/A -   "
32.46, 1413.57, 0.0542216, NaN, NaN, NaN, 0.03112983, "- N/A -   "
32.74, 1426.685, 0.0546826, NaN, NaN, NaN, 0.0347922, "- N/A -   "
33.02, 1439.21, 0.0551296, NaN, NaN, NaN, 0.04211683, "- N/A -   "
33.3, 1452.8, 0.0556128, NaN, NaN, NaN, 0.0347922, "- N/A -   "
33.58, 1465.8, 0.05607373, NaN, NaN, NaN, 0.0372337, "- N/A -   "
33.86, 1479.51, 0.05655133, NaN, NaN, NaN, 0.0335714, "- N/A -   "
34.14, 1492.63, 0.05702338, NaN, NaN, NaN, 0.0299091, "- N/A -   "
34.42, 1504.68, 0.05745655, NaN, NaN, NaN, 0.04577916, "- N/A -   "
34.7, 1518.99, 0.05795359, NaN, NaN, NaN, 0.03112983, "- N/A -   "
34.98, 1530.91, 0.05838954, NaN, NaN, NaN, 0.0445584, "- N/A -   "
35.26, 1545.22, 0.0588949, NaN, NaN, NaN, 0.0274675, "- N/A -   "
35.54, 1557.5, 0.0593392, NaN, NaN, NaN, 0.0384545, "- N/A -   "
35.82, 1570.74, 0.05980568, NaN, NaN, NaN, 0.0384545, "- N/A -   "
36.1, 1583.86, 0.0602777, NaN, NaN, NaN, 0.03601294, "- N/A -   "
36.38, 1596.74, 0.0607359, NaN, NaN, NaN, 0.0396753, "- N/A -   "
36.66, 1610.09, 0.0612135, NaN, NaN, NaN, 0.0347922, "- N/A -   "
36.94, 1623.093, 0.06168, NaN, NaN, NaN, 0.0347922, "- N/A -   "
37.22, 1635.61, 0.062127, NaN, NaN, NaN, 0.0433376, "- N/A -   "
37.5, 1649.567, 0.06262408, NaN, NaN, NaN, 0.0299091, "- N/A -   "
37.78, 1661.13, 0.0630517, NaN, NaN, NaN, 0.04699994, "- N/A -   "
38.06, 1675.564, 0.06355985, NaN, NaN, NaN, 0.0286883, "- N/A -   "
38.34, 1687.37, 0.06399302, NaN, NaN, NaN, 0.0433376, "- N/A -   "
38.62, 1701.08, 0.064479, NaN, NaN, NaN, 0.03601294, "- N/A -   "
38.9, 1713.963, 0.0649399, NaN, NaN, NaN, 0.0372337, "- N/A -   "
39.18, 1726.48, 0.06540084, NaN, NaN, NaN, 0.0396753, "- N/A -   "
39.46, 1739.96, 0.0658784, NaN, NaN, NaN, 0.0347922, "- N/A -   "
39.74, 1751.89, 0.06632549, NaN, NaN, NaN, 0.0433376, "- N/A -   "
40.02, 1765.36, 0.06680865, NaN, NaN, NaN, 0.0384545, "- N/A -   "
40.3, 1778.12, 0.0672807, NaN, NaN, NaN, 0.03601294, "- N/A -   "
40.58, 1790.4, 0.06773331, NaN, NaN, NaN, 0.04211683, "- N/A -   "
40.86, 1803.52, 0.0682192, NaN, NaN, NaN, 0.0335714, "- N/A -   "
41.14, 1814.85, 0.0686441, NaN, NaN, NaN, 0.05066227, "- N/A -   "
41.373, 1826.66, 0.0690717, NaN, NaN, NaN, 0.0335714, "- N/A -   "

File: Hamel_ForceTest_Bolt7_Test9.csv
Time, Load (lb), Position (in), AxialStrain (in), TransverseStrain (in), Auxiliary (), Control Out (V), Stress (psi)
0.0, 12.5024, 0.0, NaN, NaN, NaN, -0.007935055, "- N/A -   "
0.01, 12.5024, -2.776752E-6, NaN, NaN, NaN, 6.103888E-4, "- N/A -   "
0.02, 12.5024, 0.0, NaN, NaN, NaN, 0.006714277, "- N/A -   "
0.03, 12.5024, 2.776752E-6, NaN, NaN, NaN, 0.0213636, "- N/A -   "
0.04, 12.5024, 5.553504E-6, NaN, NaN, NaN, 0.0384545, "- N/A -   "
0.05, 12.6204, 1.38838e-05, NaN, NaN, NaN, 0.0543246, "- N/A -   "
0.06, 12.8563, 2.77675e-05, NaN, NaN, NaN, 0.06775316, "- N/A -   "
0.07, 12.9742, 4.720478E-5, NaN, NaN, NaN, 0.07874016, "- N/A -   "
0.08, 13.2101, 6.94188E-5, NaN, NaN, NaN, 0.08850638, "- N/A -   "
0.09, 13.446, 9.718631E-5, NaN, NaN, NaN, 0.095831, "- N/A -   "
0.1, 14.0357, 0.000124954, NaN, NaN, NaN, 0.103156, "- N/A -   "
0.16, 17.3383, 0.000288782, NaN, NaN, NaN, 0.0750778, "- N/A -   "
0.22, 19.57928, 4.081825E-4, NaN, NaN, NaN, 0.06653238, "- N/A -   "
0.28, 21.8203, 0.000522029, NaN, NaN, NaN, 0.06164927, "- N/A -   "
0.34, 24.5331, 6.497599E-4, NaN, NaN, NaN, 0.0494415, "- N/A -   "
0.4, 26.6561, 0.000763607, NaN, NaN, NaN, 0.0433376, "- N/A -   "
0.46, 28.7792, 8.691233E-4, NaN, NaN, NaN, 0.0396753, "- N/A -   "
0.52, 30.9022, 9.829701E-4, NaN, NaN, NaN, 0.0335714, "- N/A -   "
0.58, 33.02529, 0.00108849, NaN, NaN, NaN, 0.03112983, "- N/A -   "
0.64, 35.0304, 0.00119123, NaN, NaN, NaN, 0.0299091, "- N/A -   "
0.7, 36.79961, 0.00128286, NaN, NaN, NaN, 0.0335714, "- N/A -   "
0.76, 38.4509, 0.00136616, NaN, NaN, NaN, 0.04211683, "- N/A -   "
0.82, 40.22009, 0.00146057, NaN, NaN, NaN, 0.0433376, "- N/A -   "
0.88, 42.2252, 0.00156331, NaN, NaN, NaN, 0.04211683, "- N/A -   "
0.94, 44.34825, 0.00166605, NaN, NaN, NaN, 0.04211683, "- N/A -   "
1, 46.4713, 0.00176879, NaN, NaN, NaN, 0.0396753, "- N/A -   "
1.06, 48.47641, 0.00187153, NaN, NaN, NaN, 0.0384545, "- N/A -   "
1.12, 51.0713, 0.001990931, NaN, NaN, NaN, 0.0299091, "- N/A -   "
1.18, 53.3123, 0.00209645, NaN, NaN, NaN, 0.0274675, "- N/A -   "
1.24, 55.1994, 0.00219086, NaN, NaN, NaN, 0.0299091, "- N/A -   "
1.3, 57.08658, 0.00228527, NaN, NaN, NaN, 0.0335714, "- N/A -   "
1.36, 59.0917, 0.0023769, NaN, NaN, NaN, 0.03601294, "- N/A -   "
1.42, 61.3327, 0.00247964, NaN, NaN, NaN, 0.0347922, "- N/A -   "
1.48, 63.2198, 0.00257127, NaN, NaN, NaN, 0.0384545, "- N/A -   "
1.54, 65.22495, 0.0026629, NaN, NaN, NaN, 0.04211683, "- N/A -   "
1.6, 67.23006, 0.00275731, NaN, NaN, NaN, 0.04577916, "- N/A -   "
1.66, 69.47106, 0.00286005, NaN, NaN, NaN, 0.0433376, "- N/A -   "
1.72, 72.06591, 0.00297668, NaN, NaN, NaN, 0.03601294, "- N/A -   "
1.78, 74.42485, 0.003087748, NaN, NaN, NaN, 0.0323506, "- N/A -   "
1.84, 76.5479, 0.00318493, NaN, NaN, NaN, 0.0323506, "- N/A -   "
1.9, 78.55301, 0.003279344, NaN, NaN, NaN, 0.03601294, "- N/A -   "
1.96, 80.794, 0.003379307, NaN, NaN, NaN, 0.03601294, "- N/A -   "
2.02, 83.03502, 0.00347927, NaN, NaN, NaN, 0.0347922, "- N/A -   "
2.08, 85.15807, 0.00357646, NaN, NaN, NaN, 0.0372337, "- N/A -   "
2.14, 87.28113, 0.00366809, NaN, NaN, NaN, 0.0396753, "- N/A -   "
2.2, 89.40418, 0.00375972, NaN, NaN, NaN, 0.0433376, "- N/A -   "
2.26, 91.76313, 0.00386802, NaN, NaN, NaN, 0.0396753, "- N/A -   "
2.32, 94.1221, 0.00397353, NaN, NaN, NaN, 0.0384545, "- N/A -   "
2.38, 96.599, 0.00408183, NaN, NaN, NaN, 0.0335714, "- N/A -   "
2.44, 98.72203, 0.004176235, NaN, NaN, NaN, 0.03601294, "- N/A -   "
2.5, 100.963, 0.004276198, NaN, NaN, NaN, 0.03601294, "- N/A -   "
2.56, 103.44, 0.00439004, NaN, NaN, NaN, 0.0299091, "- N/A -   "
2.62, 105.681, 0.00449001, NaN, NaN, NaN, 0.03112983, "- N/A -   "
2.68, 107.804, 0.004584417, NaN, NaN, NaN, 0.0335714, "- N/A -   "
2.74, 110.045, 0.00468438, NaN, NaN, NaN, 0.0335714, "- N/A -   "
2.8, 112.404, 0.00478712, NaN, NaN, NaN, 0.0323506, "- N/A -   "
2.86, 114.527, 0.004875976, NaN, NaN, NaN, 0.0372337, "- N/A -   "
2.92, 116.414, 0.004964832, NaN, NaN, NaN, 0.04089605, "- N/A -   "
2.98, 118.537, 0.00505924, NaN, NaN, NaN, 0.0445584, "- N/A -   "
3.04, 120.778, 0.00515365, NaN, NaN, NaN, 0.04577916, "- N/A -   "
3.1, 123.491, 0.0052675, NaN, NaN, NaN, 0.04089605, "- N/A -   "
3.16, 126.086, 0.00537857, NaN, NaN, NaN, 0.0347922, "- N/A -   "
3.22, 128.4448, 0.00548131, NaN, NaN, NaN, 0.0347922, "- N/A -   "
3.28, 130.332, 0.005572941, NaN, NaN, NaN, 0.0384545, "- N/A -   "
3.34, 132.9268, 0.00567846, NaN, NaN, NaN, 0.0347922, "- N/A -   "
3.4, 135.522, 0.0057923, NaN, NaN, NaN, 0.0299091, "- N/A -   "
3.46, 137.6447, 0.005886714, NaN, NaN, NaN, 0.03112983, "- N/A -   "
3.52, 139.65, 0.005972794, NaN, NaN, NaN, 0.0372337, "- N/A -   "
3.58, 141.419, 0.006056096, NaN, NaN, NaN, 0.04577916, "- N/A -   "
3.64, 143.66, 0.00615051, NaN, NaN, NaN, 0.0482207, "- N/A -   "
3.7, 146.137, 0.0062588, NaN, NaN, NaN, 0.0445584, "- N/A -   "
3.76, 148.968, 0.00637542, NaN, NaN, NaN, 0.0384545, "- N/A -   "
3.82, 151.327, 0.006478162, NaN, NaN, NaN, 0.03601294, "- N/A -   "
3.88, 153.686, 0.006583679, NaN, NaN, NaN, 0.0335714, "- N/A -   "
3.94, 156.398, 0.0067003, NaN, NaN, NaN, 0.0274675, "- N/A -   "
4, 158.7573, 0.006797489, NaN, NaN, NaN, 0.0274675, "- N/A -   "
4.06, 160.88, 0.00688912, NaN, NaN, NaN, 0.03112983, "- N/A -   "
4.12, 162.885, 0.006986308, NaN, NaN, NaN, 0.0335714, "- N/A -   "
4.18, 164.891, 0.00706961, NaN, NaN, NaN, 0.0396753, "- N/A -   "
4.24, 167.014, 0.00716124, NaN, NaN, NaN, 0.0445584, "- N/A -   "
4.3, 169.137, 0.00725565, NaN, NaN, NaN, 0.04577916, "- N/A -   "
4.36, 171.496, 0.00735562, NaN, NaN, NaN, 0.04577916, "- N/A -   "
4.42, 173.973, 0.00745836, NaN, NaN, NaN, 0.04577916, "- N/A -   "
4.48, 176.567, 0.00756943, NaN, NaN, NaN, 0.0396753, "- N/A -   "
4.54, 179.3981, 0.00768327, NaN, NaN, NaN, 0.0335714, "- N/A -   "
4.6, 181.757, 0.00779157, NaN, NaN, NaN, 0.03112983, "- N/A -   "
4.66, 183.998, 0.007885976, NaN, NaN, NaN, 0.0323506, "- N/A -   "
4.72, 186.239, 0.007980385, NaN, NaN, NaN, 0.0347922, "- N/A -   "
4.78, 188.48, 0.008077571, NaN, NaN, NaN, 0.0372337, "- N/A -   "
4.84, 190.721, 0.008171981, NaN, NaN, NaN, 0.0384545, "- N/A -   "
4.9, 192.962, 0.00826639, NaN, NaN, NaN, 0.04089605, "- N/A -   "
4.96, 195.085, 0.008358023, NaN, NaN, NaN, 0.0445584, "- N/A -   "
5.02, 197.326, 0.008455209, NaN, NaN, NaN, 0.04577916, "- N/A -   "
5.08, 200.157, 0.008569056, NaN, NaN, NaN, 0.0396753, "- N/A -   "
5.14, 202.7517, 0.008688456, NaN, NaN, NaN, 0.0323506, "- N/A -   "
5.2, 205.347, 0.00878842, NaN, NaN, NaN, 0.03112983, "- N/A -   "
5.26, 207.2337, 0.00888283, NaN, NaN, NaN, 0.0335714, "- N/A -   "
5.32, 209.711, 0.00898279, NaN, NaN, NaN, 0.0347922, "- N/A -   "
5.38, 211.9516, 0.009082756, NaN, NaN, NaN, 0.0335714, "- N/A -   "
5.44, 214.546, 0.009185496, NaN, NaN, NaN, 0.0323506, "- N/A -   "
5.5, 216.552, 0.009277128, NaN, NaN, NaN, 0.0372337, "- N/A -   "
5.56, 218.6746, 0.00936876, NaN, NaN, NaN, 0.0396753, "- N/A -   "
5.62, 220.916, 0.009463171, NaN, NaN, NaN, 0.04211683, "- N/A -   "
5.68, 223.3925, 0.009568687, NaN, NaN, NaN, 0.0396753, "- N/A -   "
5.74, 225.6335, 0.00966865, NaN, NaN, NaN, 0.04089605, "- N/A -   "
5.8, 228.11, 0.009771389, NaN, NaN, NaN, 0.0396753, "- N/A -   "
5.86, 230.705, 0.009871352, NaN, NaN, NaN, 0.0384545, "- N/A -   "
5.92, 232.828, 0.009971315, NaN, NaN, NaN, 0.0384545, "- N/A -   "
[...]
29.25, 1212.747, 0.0488569, NaN, NaN, NaN, 0.0372337, "- N/A -   "
29.47, 1222.64, 0.0492124, NaN, NaN, NaN, 0.04211683, "- N/A -   "
29.69, 1233.26, 0.0495956, NaN, NaN, NaN, 0.0347922, "- N/A -   "
29.91, 1243.87, 0.0499704, NaN, NaN, NaN, 0.03112983, "- N/A -   "
30.13, 1253.77, 0.05033418, NaN, NaN, NaN, 0.0323506, "- N/A -   "
30.35, 1263.19, 0.0506729, NaN, NaN, NaN, 0.0445584, "- N/A -   "
30.57, 1274.04, 0.05106169, NaN, NaN, NaN, 0.0347922, "- N/A -   "
30.79, 1284.3, 0.05142822, NaN, NaN, NaN, 0.03601294, "- N/A -   "
31.01, 1293.72, 0.05177254, NaN, NaN, NaN, 0.04577916, "- N/A -   "
31.23, 1305.05, 0.0521779, NaN, NaN, NaN, 0.0299091, "- N/A -   "
31.45, 1314.59, 0.05252781, NaN, NaN, NaN, 0.0372337, "- N/A -   "
31.67, 1324.13, 0.0528666, NaN, NaN, NaN, 0.0494415, "- N/A -   "
31.89, 1335.46, 0.0532692, NaN, NaN, NaN, 0.0323506, "- N/A -   "
32.11, 1345.236, 0.0536246, NaN, NaN, NaN, 0.0372337, "- N/A -   "
32.33, 1354.9, 0.0539717, NaN, NaN, NaN, 0.04577916, "- N/A -   "
32.55, 1366.34, 0.0543744, NaN, NaN, NaN, 0.03112983, "- N/A -   "
32.77, 1376.24, 0.05472978, NaN, NaN, NaN, 0.0347922, "- N/A -   "
32.99, 1386.02, 0.0550852, NaN, NaN, NaN, 0.0396753, "- N/A -   "
33.21, 1396.63, 0.05546284, NaN, NaN, NaN, 0.03601294, "- N/A -   "
33.43, 1406.65, 0.0558294, NaN, NaN, NaN, 0.03601294, "- N/A -   "
33.65, 1416.55, 0.0561792, NaN, NaN, NaN, 0.04211683, "- N/A -   "
33.87, 1427.52, 0.0565708, NaN, NaN, NaN, 0.03112983, "- N/A -   "
34.09, 1437.89, 0.05694285, NaN, NaN, NaN, 0.0286883, "- N/A -   "
34.31, 1447.08, 0.05727606, NaN, NaN, NaN, 0.0433376, "- N/A -   "
34.53, 1457.81, 0.057662, NaN, NaN, NaN, 0.0347922, "- N/A -   "
34.75, 1468.42, 0.0580424, NaN, NaN, NaN, 0.0286883, "- N/A -   "
34.97, 1477.61, 0.0583812, NaN, NaN, NaN, 0.04211683, "- N/A -   "
35.19, 1488.22, 0.0587588, NaN, NaN, NaN, 0.03601294, "- N/A -   "
35.41, 1498.71, 0.0591365, NaN, NaN, NaN, 0.0335714, "- N/A -   "
35.63, 1508.25, 0.0594808, NaN, NaN, NaN, 0.04211683, "- N/A -   "
35.85, 1518.99, 0.0598612, NaN, NaN, NaN, 0.03601294, "- N/A -   "
36.07, 1528.884, 0.0602222, NaN, NaN, NaN, 0.0396753, "- N/A -   "
36.29, 1538.9, 0.06058317, NaN, NaN, NaN, 0.04089605, "- N/A -   "
36.51, 1549.51, 0.06096081, NaN, NaN, NaN, 0.03601294, "- N/A -   "
36.73, 1559.89, 0.06133567, NaN, NaN, NaN, 0.0323506, "- N/A -   "
36.95, 1569.91, 0.06169665, NaN, NaN, NaN, 0.03601294, "- N/A -   "
37.17, 1579.57, 0.0620437, NaN, NaN, NaN, 0.0433376, "- N/A -   "
37.39, 1590.42, 0.0624325, NaN, NaN, NaN, 0.0335714, "- N/A -   "
37.61, 1600.55, 0.06279624, NaN, NaN, NaN, 0.0347922, "- N/A -   "
37.83, 1610.09, 0.0631433, NaN, NaN, NaN, 0.0433376, "- N/A -   "
38.05, 1621.3, 0.06354319, NaN, NaN, NaN, 0.0286883, "- N/A -   "
38.27, 1630.73, 0.06388751, NaN, NaN, NaN, 0.0384545, "- N/A -   "
38.49, 1640.5, 0.06424293, NaN, NaN, NaN, 0.0445584, "- N/A -   "
38.71, 1651.71, 0.06464279, NaN, NaN, NaN, 0.0286883, "- N/A -   "
38.93, 1661.13, 0.0649871, NaN, NaN, NaN, 0.0384545, "- N/A -   "
39.15, 1670.91, 0.0653397, NaN, NaN, NaN, 0.0445584, "- N/A -   "
39.37, 1682, 0.06573682, NaN, NaN, NaN, 0.0323506, "- N/A -   "
39.59, 1692.26, 0.0661089, NaN, NaN, NaN, 0.0299091, "- N/A -   "
39.81, 1701.44, 0.0664449, NaN, NaN, NaN, 0.04211683, "- N/A -   "
40.03, 1711.94, 0.06682809, NaN, NaN, NaN, 0.03601294, "- N/A -   "
40.25, 1722.19, 0.0671974, NaN, NaN, NaN, 0.0347922, "- N/A -   "
40.47, 1731.73, 0.06754449, NaN, NaN, NaN, 0.0433376, "- N/A -   "
40.69, 1742.58, 0.06793879, NaN, NaN, NaN, 0.0323506, "- N/A -   "
40.768, 1746.04, 0.0680693, NaN, NaN, NaN, 0.03112983, "- N/A -   "