Folder: DigitalTwins-Machine-Learning/2_Tensile_Data (part 29)

File: Hamel_ForceTest_Bolt8_Test2.csv
Time, Load (lb), Position (in), AxialStrain (in), TransverseStrain (in), Auxiliary (), Control Out (V), Stress (psi)
0.0, 1.06153, 0.0, NaN, NaN, NaN, 0.0799609, "- N/A -   "
0.01, 1.17947, 3.054427E-5, NaN, NaN, NaN, 0.07385705, "- N/A -   "
0.02, 1.29742, 6.108854E-5, NaN, NaN, NaN, 0.06775316, "- N/A -   "
0.03, 1.41537, 8.885606E-5, NaN, NaN, NaN, 0.06287005, "- N/A -   "
0.04, 1.53332, 0.000113847, NaN, NaN, NaN, 0.0592077, "- N/A -   "
0.05, 1.65126, 1.388376E-4, NaN, NaN, NaN, 0.0555454, "- N/A -   "
0.06, 1.76921, 1.610516E-4, NaN, NaN, NaN, 0.0531038, "- N/A -   "
0.07, 1.76921, 0.000183266, NaN, NaN, NaN, 0.05066227, "- N/A -   "
0.08, 1.88716, 0.00020548, NaN, NaN, NaN, 0.0482207, "- N/A -   "
0.09, 2.005107, 0.000227694, NaN, NaN, NaN, 0.04699994, "- N/A -   "
0.1, 2.12305, 2.471309E-4, NaN, NaN, NaN, 0.0445584, "- N/A -   "
0.11, 2.12305, 0.000266568, NaN, NaN, NaN, 0.0433376, "- N/A -   "
0.12, 2.12305, 0.000286005, NaN, NaN, NaN, 0.0433376, "- N/A -   "
0.13, 2.35895, 0.000302666, NaN, NaN, NaN, 0.04211683, "- N/A -   "
0.14, 2.35895, 0.000319326, NaN, NaN, NaN, 0.04211683, "- N/A -   "
0.15, 2.476897, 0.000335987, NaN, NaN, NaN, 0.04211683, "- N/A -   "
0.16, 2.59484, 0.000352647, NaN, NaN, NaN, 0.04211683, "- N/A -   "
0.17, 2.712792, 0.000366531, NaN, NaN, NaN, 0.0433376, "- N/A -   "
0.18, 2.712792, 0.000383192, NaN, NaN, NaN, 0.0433376, "- N/A -   "
0.19, 2.712792, 0.000397076, NaN, NaN, NaN, 0.0445584, "- N/A -   "
0.2, 2.712792, 0.000410959, NaN, NaN, NaN, 0.04577916, "- N/A -   "
0.21, 2.83074, 4.276198E-4, NaN, NaN, NaN, 0.04577916, "- N/A -   "
0.22, 2.94869, 4.442803E-4, NaN, NaN, NaN, 0.04577916, "- N/A -   "
0.23, 3.06663, 0.000458164, NaN, NaN, NaN, 0.04699994, "- N/A -   "
0.24, 3.06663, 0.000474825, NaN, NaN, NaN, 0.04699994, "- N/A -   "
0.25, 3.18458, 0.000491485, NaN, NaN, NaN, 0.04699994, "- N/A -   "
0.26, 3.30253, 0.000510922, NaN, NaN, NaN, 0.04699994, "- N/A -   "
0.27, 3.30253, 5.248061E-4, NaN, NaN, NaN, 0.04699994, "- N/A -   "
0.28, 3.42048, 5.442434E-4, NaN, NaN, NaN, 0.04699994, "- N/A -   "
0.29, 3.42048, 0.000560904, NaN, NaN, NaN, 0.04699994, "- N/A -   "
0.3, 3.53842, 0.000577564, NaN, NaN, NaN, 0.04699994, "- N/A -   "
0.31, 3.65637, 5.942249E-4, NaN, NaN, NaN, 0.04699994, "- N/A -   "
0.32, 3.65637, 6.108854E-4, NaN, NaN, NaN, 0.04577916, "- N/A -   "
0.33, 3.774319, 0.000627546, NaN, NaN, NaN, 0.04577916, "- N/A -   "
0.34, 3.774319, 6.442064E-4, NaN, NaN, NaN, 0.04577916, "- N/A -   "
0.35, 3.774319, 6.636437E-4, NaN, NaN, NaN, 0.04577916, "- N/A -   "
0.36, 4.010214, 6.803042E-4, NaN, NaN, NaN, 0.04577916, "- N/A -   "
0.37, 4.010214, 6.969647E-4, NaN, NaN, NaN, 0.0445584, "- N/A -   "
0.38, 4.12816, 7.136252E-4, NaN, NaN, NaN, 0.0445584, "- N/A -   "
0.39, 4.12816, 0.000733062, NaN, NaN, NaN, 0.0433376, "- N/A -   "
0.4, 4.36406, 7.49723E-4, NaN, NaN, NaN, 0.0433376, "- N/A -   "
0.41, 4.482, 7.663835E-4, NaN, NaN, NaN, 0.0433376, "- N/A -   "
0.42, 4.482, 0.000783044, NaN, NaN, NaN, 0.0433376, "- N/A -   "
0.48, 5.307636, 8.857838E-4, NaN, NaN, NaN, 0.04211683, "- N/A -   "
0.54, 6.251216, 0.00100518, NaN, NaN, NaN, 0.0335714, "- N/A -   "
0.6, 7.430691, 0.001119031, NaN, NaN, NaN, 0.0286883, "- N/A -   "
0.66, 8.37427, 0.00121066, NaN, NaN, NaN, 0.03112983, "- N/A -   "
0.72, 9.31785, 0.0013023, NaN, NaN, NaN, 0.0347922, "- N/A -   "
0.78, 10.26143, 0.001399483, NaN, NaN, NaN, 0.03601294, "- N/A -   "
0.84, 11.323, 0.00150222, NaN, NaN, NaN, 0.0347922, "- N/A -   "
0.9, 12.5024, 0.00159663, NaN, NaN, NaN, 0.0372337, "- N/A -   "
0.96, 13.446, 0.00168271, NaN, NaN, NaN, 0.0433376, "- N/A -   "
1.02, 14.8614, 0.00178267, NaN, NaN, NaN, 0.0433376, "- N/A -   "
1.08, 16.1588, 0.00188541, NaN, NaN, NaN, 0.0433376, "- N/A -   "
1.14, 17.8101, 0.00199926, NaN, NaN, NaN, 0.03601294, "- N/A -   "
1.2, 19.3434, 0.00211033, NaN, NaN, NaN, 0.03112983, "- N/A -   "
1.26, 20.6408, 0.00221029, NaN, NaN, NaN, 0.03112983, "- N/A -   "
1.32, 22.0562, 0.00230193, NaN, NaN, NaN, 0.0347922, "- N/A -   "
1.38, 23.4715, 0.00240189, NaN, NaN, NaN, 0.0347922, "- N/A -   "
1.44, 25.1228, 0.00251018, NaN, NaN, NaN, 0.0323506, "- N/A -   "
1.5, 26.6561, 0.00260182, NaN, NaN, NaN, 0.0347922, "- N/A -   "
1.56, 28.1894, 0.00269623, NaN, NaN, NaN, 0.0372337, "- N/A -   "
1.62, 29.6048, 0.00278508, NaN, NaN, NaN, 0.04211683, "- N/A -   "
1.68, 31.2561, 0.002887822, NaN, NaN, NaN, 0.04089605, "- N/A -   "
1.74, 33.02529, 0.00299056, NaN, NaN, NaN, 0.0396753, "- N/A -   "
1.8, 34.7945, 0.003098855, NaN, NaN, NaN, 0.03601294, "- N/A -   "
1.86, 36.44577, 0.00319326, NaN, NaN, NaN, 0.0384545, "- N/A -   "
1.92, 38.097, 0.00329045, NaN, NaN, NaN, 0.0396753, "- N/A -   "
1.98, 39.98419, 0.00340152, NaN, NaN, NaN, 0.0347922, "- N/A -   "
2.04, 41.7534, 0.00350426, NaN, NaN, NaN, 0.0335714, "- N/A -   "
2.1, 43.2867, 0.00360145, NaN, NaN, NaN, 0.0347922, "- N/A -   "
2.16, 45.05593, 0.00370141, NaN, NaN, NaN, 0.03601294, "- N/A -   "
2.22, 47.061, 0.00380693, NaN, NaN, NaN, 0.0323506, "- N/A -   "
2.28, 48.59436, 0.003904113, NaN, NaN, NaN, 0.0347922, "- N/A -   "
2.34, 50.1277, 0.00399019, NaN, NaN, NaN, 0.0396753, "- N/A -   "
2.4, 51.7789, 0.004084602, NaN, NaN, NaN, 0.04211683, "- N/A -   "
2.46, 53.54815, 0.00418179, NaN, NaN, NaN, 0.0433376, "- N/A -   "
2.52, 55.43531, 0.00429008, NaN, NaN, NaN, 0.0396753, "- N/A -   "
2.58, 57.44042, 0.00440115, NaN, NaN, NaN, 0.03601294, "- N/A -   "
2.64, 59.2096, 0.00450667, NaN, NaN, NaN, 0.0323506, "- N/A -   "
2.7, 60.8609, 0.004606631, NaN, NaN, NaN, 0.0323506, "- N/A -   "
2.76, 62.5122, 0.004703818, NaN, NaN, NaN, 0.0335714, "- N/A -   "
2.82, 64.3993, 0.004812111, NaN, NaN, NaN, 0.0299091, "- N/A -   "
2.88, 65.93263, 0.004909297, NaN, NaN, NaN, 0.03112983, "- N/A -   "
2.94, 67.34801, 0.00500093, NaN, NaN, NaN, 0.03601294, "- N/A -   "
3, 68.8813, 0.005087009, NaN, NaN, NaN, 0.04089605, "- N/A -   "
3.06, 70.17874, 0.00517587, NaN, NaN, NaN, 0.04577916, "- N/A -   "
3.12, 71.94796, 0.00527861, NaN, NaN, NaN, 0.0445584, "- N/A -   "
3.18, 73.9531, 0.00539245, NaN, NaN, NaN, 0.0384545, "- N/A -   "
3.24, 75.6043, 0.00549797, NaN, NaN, NaN, 0.03601294, "- N/A -   "
3.3, 77.25559, 0.00560071, NaN, NaN, NaN, 0.03601294, "- N/A -   "
3.36, 78.90686, 0.005709002, NaN, NaN, NaN, 0.03112983, "- N/A -   "
3.42, 80.67606, 0.005820072, NaN, NaN, NaN, 0.0262467, "- N/A -   "
3.48, 81.97349, 0.005914482, NaN, NaN, NaN, 0.0286883, "- N/A -   "
3.54, 83.50681, 0.006008891, NaN, NaN, NaN, 0.0323506, "- N/A -   "
3.6, 84.92217, 0.006097747, NaN, NaN, NaN, 0.0372337, "- N/A -   "
3.66, 86.2196, 0.006186603, NaN, NaN, NaN, 0.04211683, "- N/A -   "
3.72, 87.75292, 0.00628379, NaN, NaN, NaN, 0.0433376, "- N/A -   "
3.78, 89.40418, 0.006383753, NaN, NaN, NaN, 0.0433376, "- N/A -   "
3.84, 91.1734, 0.006483716, NaN, NaN, NaN, 0.0433376, "- N/A -   "
3.9, 92.94261, 0.006597562, NaN, NaN, NaN, 0.0372337, "- N/A -   "
3.96, 94.8298, 0.006714186, NaN, NaN, NaN, 0.0299091, "- N/A -   "
4.02, 96.599, 0.006819702, NaN, NaN, NaN, 0.0286883, "- N/A -   "
4.08, 98.01435, 0.00691411, NaN, NaN, NaN, 0.0299091, "- N/A -   "
4.14, 99.3118, 0.00700019, NaN, NaN, NaN, 0.03601294, "- N/A -   "
4.2, 100.963, 0.00709738, NaN, NaN, NaN, 0.0372337, "- N/A -   "
4.26, 102.496, 0.00719734, NaN, NaN, NaN, 0.0384545, "- N/A -   "
[...]
20.5, 672.2329, 0.03428178, NaN, NaN, NaN, 0.0286883, "- N/A -   "
20.62, 676.9642, 0.0344734, NaN, NaN, NaN, 0.0323506, "- N/A -   "
20.74, 681.3405, 0.03464831, NaN, NaN, NaN, 0.0433376, "- N/A -   "
20.86, 686.545, 0.0348482, NaN, NaN, NaN, 0.0433376, "- N/A -   "
20.98, 691.9858, 0.03505927, NaN, NaN, NaN, 0.0384545, "- N/A -   "
21.1, 697.545, 0.0352786, NaN, NaN, NaN, 0.0299091, "- N/A -   "
21.22, 702.3945, 0.0354675, NaN, NaN, NaN, 0.0347922, "- N/A -   "
21.34, 707.3623, 0.0356618, NaN, NaN, NaN, 0.0384545, "- N/A -   "
21.46, 712.2118, 0.0358506, NaN, NaN, NaN, 0.04211683, "- N/A -   "
21.58, 717.6527, 0.0360617, NaN, NaN, NaN, 0.0384545, "- N/A -   "
21.7, 723.2119, 0.036281, NaN, NaN, NaN, 0.0299091, "- N/A -   "
21.82, 728.1797, 0.0364726, NaN, NaN, NaN, 0.0347922, "- N/A -   "
21.94, 733.2658, 0.0366753, NaN, NaN, NaN, 0.0335714, "- N/A -   "
22.06, 737.7605, 0.0368531, NaN, NaN, NaN, 0.04211683, "- N/A -   "
22.18, 743.0831, 0.0370585, NaN, NaN, NaN, 0.0396753, "- N/A -   "
22.3, 748.406, 0.03726401, NaN, NaN, NaN, 0.0384545, "- N/A -   "
22.42, 753.4918, 0.03746116, NaN, NaN, NaN, 0.0384545, "- N/A -   "
22.54, 758.933, 0.03767219, NaN, NaN, NaN, 0.0335714, "- N/A -   "
22.66, 764.1371, 0.0378721, NaN, NaN, NaN, 0.0335714, "- N/A -   "
22.78, 768.987, 0.0380637, NaN, NaN, NaN, 0.0372337, "- N/A -   "
22.9, 773.8361, 0.0382525, NaN, NaN, NaN, 0.0433376, "- N/A -   "
23.02, 779.5136, 0.0384636, NaN, NaN, NaN, 0.0384545, "- N/A -   "
23.14, 784.9545, 0.03867182, NaN, NaN, NaN, 0.0335714, "- N/A -   "
23.26, 790.277, 0.0388801, NaN, NaN, NaN, 0.0299091, "- N/A -   "
23.38, 795.4815, 0.0390772, NaN, NaN, NaN, 0.03112983, "- N/A -   "
23.5, 799.8579, 0.0392466, NaN, NaN, NaN, 0.0445584, "- N/A -   "
23.62, 805.181, 0.03944931, NaN, NaN, NaN, 0.0433376, "- N/A -   "
23.74, 810.74, 0.03966312, NaN, NaN, NaN, 0.0372337, "- N/A -   "
23.86, 816.181, 0.0398742, NaN, NaN, NaN, 0.0323506, "- N/A -   "
23.98, 821.5033, 0.04007964, NaN, NaN, NaN, 0.0299091, "- N/A -   "
24.1, 826.1163, 0.04025735, NaN, NaN, NaN, 0.0396753, "- N/A -   "
24.22, 830.9658, 0.0404489, NaN, NaN, NaN, 0.0433376, "- N/A -   "
24.34, 836.525, 0.04066, NaN, NaN, NaN, 0.0396753, "- N/A -   "
24.46, 842.439, 0.0408849, NaN, NaN, NaN, 0.0274675, "- N/A -   "
24.58, 847.4068, 0.0410765, NaN, NaN, NaN, 0.03112983, "- N/A -   "
24.7, 852.375, 0.0412681, NaN, NaN, NaN, 0.0347922, "- N/A -   "
24.82, 857.2241, 0.0414569, NaN, NaN, NaN, 0.0396753, "- N/A -   "
24.94, 862.192, 0.04164572, NaN, NaN, NaN, 0.0445584, "- N/A -   "
25.06, 868.3425, 0.0418706, NaN, NaN, NaN, 0.0335714, "- N/A -   "
25.18, 873.3103, 0.042065, NaN, NaN, NaN, 0.03601294, "- N/A -   "
25.3, 878.7512, 0.0422677, NaN, NaN, NaN, 0.03601294, "- N/A -   "
25.42, 883.9556, 0.0424676, NaN, NaN, NaN, 0.0347922, "- N/A -   "
25.54, 888.9234, 0.0426565, NaN, NaN, NaN, 0.0396753, "- N/A -   "
25.66, 894.246, 0.0428619, NaN, NaN, NaN, 0.0384545, "- N/A -   "
25.78, 899.687, 0.0430674, NaN, NaN, NaN, 0.0347922, "- N/A -   "
25.9, 905.364, 0.0432785, NaN, NaN, NaN, 0.0299091, "- N/A -   "
26.02, 910.3322, 0.0434728, NaN, NaN, NaN, 0.0335714, "- N/A -   "
26.14, 915.4183, 0.04367, NaN, NaN, NaN, 0.03601294, "- N/A -   "
26.26, 920.3861, 0.04385324, NaN, NaN, NaN, 0.04211683, "- N/A -   "
26.38, 925.472, 0.0440476, NaN, NaN, NaN, 0.0445584, "- N/A -   "
26.5, 931.504, 0.0442698, NaN, NaN, NaN, 0.0347922, "- N/A -   "
26.62, 936.5906, 0.0444669, NaN, NaN, NaN, 0.0372337, "- N/A -   "
26.74, 942.3863, 0.0446835, NaN, NaN, NaN, 0.0286883, "- N/A -   "
26.78, 943.687, 0.0447418, NaN, NaN, NaN, 0.0323506, "- N/A -   "

File: Hamel_ForceTest_Bolt8_Test3.csv
Time, Load (lb), Position (in), AxialStrain (in), TransverseStrain (in), Auxiliary (), Control Out (V), Stress (psi)
0.0, 1.06153, 0.0, NaN, NaN, NaN, 0.100714, "- N/A -   "
0.01, 1.41537, 2.49908e-05, NaN, NaN, NaN, 0.101935, "- N/A -   "
0.02, 1.65126, 5.27583e-05, NaN, NaN, NaN, 0.0982726, "- N/A -   "
0.03, 2.005107, 7.774905E-5, NaN, NaN, NaN, 0.09338949, "- N/A -   "
0.04, 2.35895, 0.000105517, NaN, NaN, NaN, 0.08850638, "- N/A -   "
0.05, 2.59484, 0.000130507, NaN, NaN, NaN, 0.084844, "- N/A -   "
0.06, 2.94869, 1.554981E-4, NaN, NaN, NaN, 0.08118171, "- N/A -   "
0.07, 3.30253, 0.000183266, NaN, NaN, NaN, 0.0762986, "- N/A -   "
0.08, 3.65637, 0.000211033, NaN, NaN, NaN, 0.07263627, "- N/A -   "
0.09, 3.89227, 2.360239E-4, NaN, NaN, NaN, 0.0689739, "- N/A -   "
0.1, 4.246109, 0.000261015, NaN, NaN, NaN, 0.0640908, "- N/A -   "
0.11, 4.59995, 0.000288782, NaN, NaN, NaN, 0.0604285, "- N/A -   "
0.12, 4.953794, 3.109962E-4, NaN, NaN, NaN, 0.05676616, "- N/A -   "
0.13, 5.307636, 0.00033321, NaN, NaN, NaN, 0.0543246, "- N/A -   "
0.14, 5.54353, 0.000358201, NaN, NaN, NaN, 0.05188305, "- N/A -   "
0.15, 5.897373, 3.80415E-4, NaN, NaN, NaN, 0.0494415, "- N/A -   "
0.16, 6.13327, 0.000399852, NaN, NaN, NaN, 0.04699994, "- N/A -   "
0.17, 6.369163, 4.192895E-4, NaN, NaN, NaN, 0.04577916, "- N/A -   "
0.18, 6.60506, 0.00043595, NaN, NaN, NaN, 0.04577916, "- N/A -   "
0.19, 6.84095, 0.000452611, NaN, NaN, NaN, 0.04577916, "- N/A -   "
0.2, 7.07685, 4.720478E-4, NaN, NaN, NaN, 0.0445584, "- N/A -   "
0.21, 7.312743, 0.000491485, NaN, NaN, NaN, 0.0433376, "- N/A -   "
0.22, 7.666586, 5.136991E-4, NaN, NaN, NaN, 0.04211683, "- N/A -   "
0.23, 7.90248, 0.000533136, NaN, NaN, NaN, 0.0396753, "- N/A -   "
0.24, 8.138375, 5.553504E-4, NaN, NaN, NaN, 0.0384545, "- N/A -   "
0.25, 8.492218, 5.747876E-4, NaN, NaN, NaN, 0.03601294, "- N/A -   "
0.26, 8.728113, 5.942249E-4, NaN, NaN, NaN, 0.0347922, "- N/A -   "
0.27, 8.964007, 6.136621E-4, NaN, NaN, NaN, 0.0347922, "- N/A -   "
0.28, 9.31785, 0.000630323, NaN, NaN, NaN, 0.0335714, "- N/A -   "
0.29, 9.553744, 6.497599E-4, NaN, NaN, NaN, 0.0323506, "- N/A -   "
0.3, 9.78964, 6.691972E-4, NaN, NaN, NaN, 0.0323506, "- N/A -   "
0.31, 10.0255, 6.858577E-4, NaN, NaN, NaN, 0.03112983, "- N/A -   "
0.32, 10.26143, 0.000705295, NaN, NaN, NaN, 0.03112983, "- N/A -   "
0.33, 10.6153, 7.219555E-4, NaN, NaN, NaN, 0.0299091, "- N/A -   "
0.34, 10.73322, 0.000735839, NaN, NaN, NaN, 0.03112983, "- N/A -   "
0.35, 10.9691, 0.0007525, NaN, NaN, NaN, 0.03112983, "- N/A -   "
0.36, 11.205, 7.71937E-4, NaN, NaN, NaN, 0.03112983, "- N/A -   "
0.37, 11.4409, 0.000785821, NaN, NaN, NaN, 0.03112983, "- N/A -   "
0.38, 11.6768, 0.000802481, NaN, NaN, NaN, 0.0323506, "- N/A -   "
0.39, 11.7947, 8.16365E-4, NaN, NaN, NaN, 0.0323506, "- N/A -   "
0.4, 12.0306, 8.358023E-4, NaN, NaN, NaN, 0.0323506, "- N/A -   "
0.41, 12.2665, 0.000849686, NaN, NaN, NaN, 0.0323506, "- N/A -   "
0.46, 13.2101, 9.218816E-4, NaN, NaN, NaN, 0.0372337, "- N/A -   "
0.51, 14.1537, 9.968539E-4, NaN, NaN, NaN, 0.04211683, "- N/A -   "
0.56, 15.3332, 0.00106905, NaN, NaN, NaN, 0.04577916, "- N/A -   "
0.61, 16.74854, 0.00115791, NaN, NaN, NaN, 0.0433376, "- N/A -   "
0.66, 17.928, 0.00123843, NaN, NaN, NaN, 0.0445584, "- N/A -   "
0.71, 19.2254, 0.00132173, NaN, NaN, NaN, 0.0445584, "- N/A -   "
0.76, 20.7588, 0.00141337, NaN, NaN, NaN, 0.04089605, "- N/A -   "
0.81, 22.29207, 0.00151611, NaN, NaN, NaN, 0.0323506, "- N/A -   "
0.86, 23.82539, 0.00160774, NaN, NaN, NaN, 0.0299091, "- N/A -   "
0.91, 25.1228, 0.00168827, NaN, NaN, NaN, 0.0299091, "- N/A -   "
0.96, 26.4202, 0.00176601, NaN, NaN, NaN, 0.0323506, "- N/A -   "
1.01, 27.7177, 0.00184376, NaN, NaN, NaN, 0.03601294, "- N/A -   "
1.06, 29.133, 0.00192151, NaN, NaN, NaN, 0.0372337, "- N/A -   "
1.11, 30.5484, 0.00200481, NaN, NaN, NaN, 0.0372337, "- N/A -   "
1.16, 31.9638, 0.00208812, NaN, NaN, NaN, 0.0372337, "- N/A -   "
1.21, 33.2612, 0.00216309, NaN, NaN, NaN, 0.04089605, "- N/A -   "
1.26, 34.55861, 0.00223529, NaN, NaN, NaN, 0.04577916, "- N/A -   "
1.31, 35.97398, 0.002326918, NaN, NaN, NaN, 0.0433376, "- N/A -   "
1.36, 37.5073, 0.00240744, NaN, NaN, NaN, 0.0433376, "- N/A -   "
1.41, 39.15856, 0.00250185, NaN, NaN, NaN, 0.0396753, "- N/A -   "
1.46, 40.9278, 0.00260182, NaN, NaN, NaN, 0.0323506, "- N/A -   "
1.51, 42.579, 0.00269345, NaN, NaN, NaN, 0.0286883, "- N/A -   "
1.56, 43.75851, 0.00276564, NaN, NaN, NaN, 0.0323506, "- N/A -   "
1.61, 45.17388, 0.002843394, NaN, NaN, NaN, 0.0347922, "- N/A -   "
1.66, 46.7072, 0.0029267, NaN, NaN, NaN, 0.03601294, "- N/A -   "
1.71, 48.3585, 0.003012776, NaN, NaN, NaN, 0.0335714, "- N/A -   "
1.76, 49.8918, 0.003101632, NaN, NaN, NaN, 0.0323506, "- N/A -   "
1.81, 51.1892, 0.0031766, NaN, NaN, NaN, 0.03601294, "- N/A -   "
1.86, 52.36868, 0.003246023, NaN, NaN, NaN, 0.04089605, "- N/A -   "
1.91, 53.784, 0.003323772, NaN, NaN, NaN, 0.0433376, "- N/A -   "
1.96, 55.3174, 0.003409851, NaN, NaN, NaN, 0.0433376, "- N/A -   "
2.01, 56.9686, 0.00349871, NaN, NaN, NaN, 0.0396753, "- N/A -   "
2.06, 58.5019, 0.00358201, NaN, NaN, NaN, 0.0396753, "- N/A -   "
2.11, 60.27116, 0.00367087, NaN, NaN, NaN, 0.0372337, "- N/A -   "
2.16, 61.8045, 0.00375972, NaN, NaN, NaN, 0.03601294, "- N/A -   "
2.21, 63.33779, 0.00384025, NaN, NaN, NaN, 0.03601294, "- N/A -   "
2.26, 65.22495, 0.00393466, NaN, NaN, NaN, 0.0323506, "- N/A -   "
2.31, 66.64032, 0.00401796, NaN, NaN, NaN, 0.03112983, "- N/A -   "
2.36, 67.9377, 0.00409293, NaN, NaN, NaN, 0.0347922, "- N/A -   "
2.41, 69.589, 0.004176235, NaN, NaN, NaN, 0.0347922, "- N/A -   "
2.46, 71.12233, 0.00425954, NaN, NaN, NaN, 0.0347922, "- N/A -   "
2.51, 72.77359, 0.004345617, NaN, NaN, NaN, 0.0347922, "- N/A -   "
2.56, 74.189, 0.004428919, NaN, NaN, NaN, 0.0335714, "- N/A -   "
2.61, 75.6043, 0.00450111, NaN, NaN, NaN, 0.0384545, "- N/A -   "
2.66, 77.13765, 0.004581641, NaN, NaN, NaN, 0.04089605, "- N/A -   "
2.71, 78.67096, 0.00466217, NaN, NaN, NaN, 0.04089605, "- N/A -   "
2.76, 80.20428, 0.004742692, NaN, NaN, NaN, 0.0433376, "- N/A -   "
2.81, 81.97349, 0.004828772, NaN, NaN, NaN, 0.04089605, "- N/A -   "
2.86, 84.09654, 0.00493151, NaN, NaN, NaN, 0.0335714, "- N/A -   "
2.91, 85.74781, 0.005014814, NaN, NaN, NaN, 0.0323506, "- N/A -   "
2.96, 87.39908, 0.005098116, NaN, NaN, NaN, 0.0323506, "- N/A -   "
3.01, 88.9324, 0.00517864, NaN, NaN, NaN, 0.0347922, "- N/A -   "
3.06, 90.81956, 0.00527028, NaN, NaN, NaN, 0.03112983, "- N/A -   "
3.11, 92.94261, 0.005361908, NaN, NaN, NaN, 0.0274675, "- N/A -   "
3.16, 94.35797, 0.00543688, NaN, NaN, NaN, 0.0299091, "- N/A -   "
3.21, 95.8913, 0.00551185, NaN, NaN, NaN, 0.0335714, "- N/A -   "
3.26, 97.30666, 0.005584048, NaN, NaN, NaN, 0.0396753, "- N/A -   "
3.31, 98.9579, 0.005656244, NaN, NaN, NaN, 0.0433376, "- N/A -   "
3.36, 100.727, 0.00573399, NaN, NaN, NaN, 0.04577916, "- N/A -   "
3.41, 102.6143, 0.005820072, NaN, NaN, NaN, 0.0445584, "- N/A -   "
3.46, 104.619, 0.005908928, NaN, NaN, NaN, 0.04211683, "- N/A -   "
3.51, 106.625, 0.00600611, NaN, NaN, NaN, 0.0384545, "- N/A -   "
3.56, 108.512, 0.00609497, NaN, NaN, NaN, 0.03601294, "- N/A -   "
3.61, 110.399, 0.00618105, NaN, NaN, NaN, 0.0335714, "- N/A -   "
3.66, 112.404, 0.00626991, NaN, NaN, NaN, 0.03112983, "- N/A -   "
[...]
32.45, 1271.78, 0.0542522, NaN, NaN, NaN, 0.03112983, "- N/A -   "
32.48, 1273.09, 0.05429938, NaN, NaN, NaN, 0.0323506, "- N/A -   "
32.51, 1274.281, 0.0543466, NaN, NaN, NaN, 0.0347922, "- N/A -   "
32.54, 1275.47, 0.05439379, NaN, NaN, NaN, 0.0347922, "- N/A -   "
32.57, 1276.55, 0.0544354, NaN, NaN, NaN, 0.0384545, "- N/A -   "
32.6, 1277.74, 0.0544771, NaN, NaN, NaN, 0.0433376, "- N/A -   "
32.63, 1278.81, 0.0545271, NaN, NaN, NaN, 0.0433376, "- N/A -   "
32.66, 1280.36, 0.0545826, NaN, NaN, NaN, 0.04089605, "- N/A -   "
32.69, 1281.794, 0.0546354, NaN, NaN, NaN, 0.0396753, "- N/A -   "
32.72, 1283.11, 0.0546826, NaN, NaN, NaN, 0.0396753, "- N/A -   "
32.75, 1284.54, 0.0547326, NaN, NaN, NaN, 0.0396753, "- N/A -   "
32.78, 1285.97, 0.05478809, NaN, NaN, NaN, 0.0372337, "- N/A -   "
32.81, 1287.4, 0.0548408, NaN, NaN, NaN, 0.03601294, "- N/A -   "
32.84, 1288.71, 0.05489083, NaN, NaN, NaN, 0.0372337, "- N/A -   "
32.87, 1289.903, 0.054938, NaN, NaN, NaN, 0.0372337, "- N/A -   "
32.9, 1291.21, 0.054988, NaN, NaN, NaN, 0.0372337, "- N/A -   "
32.93, 1292.65, 0.0550408, NaN, NaN, NaN, 0.03601294, "- N/A -   "
32.96, 1294.08, 0.0550935, NaN, NaN, NaN, 0.0347922, "- N/A -   "
32.99, 1295.63, 0.0551491, NaN, NaN, NaN, 0.0323506, "- N/A -   "
33.02, 1297.06, 0.05520183, NaN, NaN, NaN, 0.03112983, "- N/A -   "
33.05, 1298.49, 0.0552518, NaN, NaN, NaN, 0.03112983, "- N/A -   "
33.08, 1299.68, 0.05530179, NaN, NaN, NaN, 0.03112983, "- N/A -   "
33.11, 1300.99, 0.0553518, NaN, NaN, NaN, 0.03112983, "- N/A -   "
33.14, 1302.42, 0.05539897, NaN, NaN, NaN, 0.0323506, "- N/A -   "
33.17, 1303.62, 0.055449, NaN, NaN, NaN, 0.0335714, "- N/A -   "
33.2, 1304.93, 0.05549894, NaN, NaN, NaN, 0.0335714, "- N/A -   "
33.23, 1306.12, 0.0555489, NaN, NaN, NaN, 0.0323506, "- N/A -   "
33.26, 1307.43, 0.05559612, NaN, NaN, NaN, 0.0335714, "- N/A -   "
33.29, 1308.51, 0.0556378, NaN, NaN, NaN, 0.0372337, "- N/A -   "
33.32, 1309.82, 0.05568498, NaN, NaN, NaN, 0.0396753, "- N/A -   "
33.35, 1311.01, 0.0557322, NaN, NaN, NaN, 0.0396753, "- N/A -   "
33.38, 1312.084, 0.0557738, NaN, NaN, NaN, 0.0433376, "- N/A -   "
33.41, 1313.16, 0.0558155, NaN, NaN, NaN, 0.04699994, "- N/A -   "
33.44, 1314.35, 0.05586269, NaN, NaN, NaN, 0.0482207, "- N/A -   "
33.47, 1315.9, 0.0559182, NaN, NaN, NaN, 0.04699994, "- N/A -   "
33.5, 1317.45, 0.055971, NaN, NaN, NaN, 0.0445584, "- N/A -   "
33.53, 1319, 0.0560293, NaN, NaN, NaN, 0.04089605, "- N/A -   "
33.56, 1320.79, 0.05609316, NaN, NaN, NaN, 0.0347922, "- N/A -   "
33.59, 1322.22, 0.0561459, NaN, NaN, NaN, 0.0335714, "- N/A -   "
33.62, 1323.41, 0.0561959, NaN, NaN, NaN, 0.0347922, "- N/A -   "
33.65, 1324.844, 0.0562459, NaN, NaN, NaN, 0.0347922, "- N/A -   "
33.68, 1326.275, 0.0562959, NaN, NaN, NaN, 0.0335714, "- N/A -   "
33.71, 1327.47, 0.0563458, NaN, NaN, NaN, 0.0335714, "- N/A -   "
33.74, 1328.9, 0.0563986, NaN, NaN, NaN, 0.0323506, "- N/A -   "
33.77, 1330.568, 0.05645414, NaN, NaN, NaN, 0.0299091, "- N/A -   "
33.8, 1332.12, 0.0565097, NaN, NaN, NaN, 0.0274675, "- N/A -   "
33.83, 1333.31, 0.0565624, NaN, NaN, NaN, 0.0274675, "- N/A -   "
33.86, 1334.5, 0.0566041, NaN, NaN, NaN, 0.0299091, "- N/A -   "
33.89, 1335.58, 0.05664851, NaN, NaN, NaN, 0.0323506, "- N/A -   "
33.92, 1336.77, 0.0566957, NaN, NaN, NaN, 0.0347922, "- N/A -   "
33.95, 1337.84, 0.0567374, NaN, NaN, NaN, 0.0384545, "- N/A -   "
33.98, 1338.92, 0.05677902, NaN, NaN, NaN, 0.04089605, "- N/A -   "
34.01, 1340.11, 0.0568234, NaN, NaN, NaN, 0.0433376, "- N/A -   "
34.04, 1341.18, 0.05686788, NaN, NaN, NaN, 0.04577916, "- N/A -   "
34.061, 1342.02, 0.0569012, NaN, NaN, NaN, 0.04699994, "- N/A -   "