Folder: DigitalTwins-Machine-Learning/2_Tensile_Data (part 7)

File: Hamel_ForceTest_Bolt3_Test11.csv
Time, Load (lb), Position (in), AxialStrain (in), TransverseStrain (in), Auxiliary (), Control Out (V), Stress (psi)
0.0, 10.8512, 0.0, NaN, NaN, NaN, -0.007935055, "- N/A -   "
0.01, 10.9691, 0.0, NaN, NaN, NaN, -6.103888E-4, "- N/A -   "
0.02, 10.9691, 0.0, NaN, NaN, NaN, 0.007935055, "- N/A -   "
0.03, 10.9691, 2.776752E-6, NaN, NaN, NaN, 0.0262467, "- N/A -   "
0.04, 11.0871, 5.553504E-6, NaN, NaN, NaN, 0.0445584, "- N/A -   "
0.05, 11.205, 1.66605e-05, NaN, NaN, NaN, 0.0592077, "- N/A -   "
0.06, 11.5589, 3.3321e-05, NaN, NaN, NaN, 0.07141549, "- N/A -   "
0.07, 12.0306, 5.27583e-05, NaN, NaN, NaN, 0.08240249, "- N/A -   "
0.08, 12.5024, 8.05258E-5, NaN, NaN, NaN, 0.09094793, "- N/A -   "
0.09, 13.2101, 0.000105517, NaN, NaN, NaN, 0.0982726, "- N/A -   "
0.1, 13.9178, 1.388376E-4, NaN, NaN, NaN, 0.103156, "- N/A -   "
0.11, 14.5075, 0.000169382, NaN, NaN, NaN, 0.095831, "- N/A -   "
0.12, 15.2152, 0.000202703, NaN, NaN, NaN, 0.0897272, "- N/A -   "
0.13, 15.805, 0.000227694, NaN, NaN, NaN, 0.084844, "- N/A -   "
0.14, 16.3947, 0.000255461, NaN, NaN, NaN, 0.0799609, "- N/A -   "
0.15, 16.9844, 2.832287E-4, NaN, NaN, NaN, 0.0762986, "- N/A -   "
0.16, 17.4562, 3.054427E-4, NaN, NaN, NaN, 0.07385705, "- N/A -   "
0.17, 17.8101, 0.00032488, NaN, NaN, NaN, 0.07141549, "- N/A -   "
0.18, 18.2819, 0.000344317, NaN, NaN, NaN, 0.0701947, "- N/A -   "
0.19, 18.7536, 0.000366531, NaN, NaN, NaN, 0.06775316, "- N/A -   "
0.2, 19.1075, 0.000383192, NaN, NaN, NaN, 0.06775316, "- N/A -   "
0.21, 19.4613, 0.000402629, NaN, NaN, NaN, 0.06653238, "- N/A -   "
0.22, 19.6972, 4.192895E-4, NaN, NaN, NaN, 0.06653238, "- N/A -   "
0.23, 20.169, 0.00043595, NaN, NaN, NaN, 0.06653238, "- N/A -   "
0.24, 20.6408, 4.553873E-4, NaN, NaN, NaN, 0.0653116, "- N/A -   "
0.25, 20.99465, 0.000474825, NaN, NaN, NaN, 0.0653116, "- N/A -   "
0.26, 21.3485, 0.000491485, NaN, NaN, NaN, 0.0640908, "- N/A -   "
0.27, 21.7023, 0.000510922, NaN, NaN, NaN, 0.0640908, "- N/A -   "
0.28, 22.0562, 0.00053036, NaN, NaN, NaN, 0.06287005, "- N/A -   "
0.29, 22.528, 0.000549797, NaN, NaN, NaN, 0.0604285, "- N/A -   "
0.3, 22.9998, 5.720109E-4, NaN, NaN, NaN, 0.0592077, "- N/A -   "
0.31, 23.4715, 5.942249E-4, NaN, NaN, NaN, 0.0555454, "- N/A -   "
0.32, 23.9433, 6.164389E-4, NaN, NaN, NaN, 0.0531038, "- N/A -   "
0.33, 24.5331, 0.000638653, NaN, NaN, NaN, 0.05188305, "- N/A -   "
0.34, 25.0049, 0.00065809, NaN, NaN, NaN, 0.0494415, "- N/A -   "
0.35, 25.3587, 0.000677527, NaN, NaN, NaN, 0.0482207, "- N/A -   "
0.36, 25.7125, 6.969647E-4, NaN, NaN, NaN, 0.04699994, "- N/A -   "
0.37, 26.18434, 0.000716402, NaN, NaN, NaN, 0.04577916, "- N/A -   "
0.38, 26.6561, 0.000735839, NaN, NaN, NaN, 0.0445584, "- N/A -   "
0.39, 27.1279, 7.552765E-4, NaN, NaN, NaN, 0.0433376, "- N/A -   "
0.4, 27.3638, 0.000774714, NaN, NaN, NaN, 0.04211683, "- N/A -   "
0.41, 27.7177, 0.000794151, NaN, NaN, NaN, 0.04211683, "- N/A -   "
0.42, 28.1894, 8.108115E-4, NaN, NaN, NaN, 0.04089605, "- N/A -   "
0.43, 28.54329, 8.27472E-4, NaN, NaN, NaN, 0.04089605, "- N/A -   "
0.44, 28.89713, 8.469093E-4, NaN, NaN, NaN, 0.0396753, "- N/A -   "
0.45, 29.251, 8.635698E-4, NaN, NaN, NaN, 0.0396753, "- N/A -   "
0.46, 29.7228, 8.830071E-4, NaN, NaN, NaN, 0.0384545, "- N/A -   "
0.5, 31.374, 0.000957979, NaN, NaN, NaN, 0.0347922, "- N/A -   "
0.54, 32.9073, 0.00103295, NaN, NaN, NaN, 0.03112983, "- N/A -   "
0.58, 34.4407, 0.00110515, NaN, NaN, NaN, 0.0299091, "- N/A -   "
0.62, 35.85603, 0.00116901, NaN, NaN, NaN, 0.0299091, "- N/A -   "
0.66, 37.15345, 0.00123288, NaN, NaN, NaN, 0.03112983, "- N/A -   "
0.7, 38.4509, 0.00129397, NaN, NaN, NaN, 0.0335714, "- N/A -   "
0.74, 39.7483, 0.00135228, NaN, NaN, NaN, 0.0372337, "- N/A -   "
0.78, 40.8098, 0.00141059, NaN, NaN, NaN, 0.04211683, "- N/A -   "
0.82, 42.2252, 0.00147168, NaN, NaN, NaN, 0.0445584, "- N/A -   "
0.86, 43.6406, 0.00153554, NaN, NaN, NaN, 0.0445584, "- N/A -   "
0.9, 45.17388, 0.00160219, NaN, NaN, NaN, 0.0445584, "- N/A -   "
0.94, 46.7072, 0.00167438, NaN, NaN, NaN, 0.04211683, "- N/A -   "
0.98, 48.2405, 0.00174658, NaN, NaN, NaN, 0.04089605, "- N/A -   "
1.02, 49.7738, 0.00181877, NaN, NaN, NaN, 0.0384545, "- N/A -   "
1.06, 51.4251, 0.001890968, NaN, NaN, NaN, 0.0347922, "- N/A -   "
1.1, 53.19431, 0.00197149, NaN, NaN, NaN, 0.0299091, "- N/A -   "
1.14, 54.8456, 0.00204369, NaN, NaN, NaN, 0.0274675, "- N/A -   "
1.18, 56.37889, 0.00210755, NaN, NaN, NaN, 0.0286883, "- N/A -   "
1.22, 57.6763, 0.00217142, NaN, NaN, NaN, 0.0299091, "- N/A -   "
1.26, 58.9737, 0.00223251, NaN, NaN, NaN, 0.0323506, "- N/A -   "
1.3, 60.3891, 0.002293597, NaN, NaN, NaN, 0.0347922, "- N/A -   "
1.34, 61.9224, 0.00235746, NaN, NaN, NaN, 0.0347922, "- N/A -   "
1.38, 63.2198, 0.00242133, NaN, NaN, NaN, 0.0372337, "- N/A -   "
1.42, 64.6352, 0.002482416, NaN, NaN, NaN, 0.0384545, "- N/A -   "
1.46, 66.05058, 0.00254628, NaN, NaN, NaN, 0.0396753, "- N/A -   "
1.5, 67.46596, 0.00260737, NaN, NaN, NaN, 0.0433376, "- N/A -   "
1.54, 68.8813, 0.00266846, NaN, NaN, NaN, 0.0445584, "- N/A -   "
1.58, 70.17874, 0.00272955, NaN, NaN, NaN, 0.04699994, "- N/A -   "
1.62, 71.71206, 0.00279619, NaN, NaN, NaN, 0.0482207, "- N/A -   "
1.66, 73.59922, 0.00287394, NaN, NaN, NaN, 0.0433376, "- N/A -   "
1.7, 75.48638, 0.002954464, NaN, NaN, NaN, 0.03601294, "- N/A -   "
1.74, 77.25559, 0.00302944, NaN, NaN, NaN, 0.0323506, "- N/A -   "
1.78, 78.78891, 0.003098855, NaN, NaN, NaN, 0.03112983, "- N/A -   "
1.82, 80.20428, 0.00316272, NaN, NaN, NaN, 0.0323506, "- N/A -   "
1.86, 81.7376, 0.00322659, NaN, NaN, NaN, 0.0335714, "- N/A -   "
1.9, 83.15297, 0.00329045, NaN, NaN, NaN, 0.03601294, "- N/A -   "
1.94, 84.68629, 0.003357093, NaN, NaN, NaN, 0.03601294, "- N/A -   "
1.98, 86.2196, 0.00342651, NaN, NaN, NaN, 0.0335714, "- N/A -   "
2.02, 87.9888, 0.00349593, NaN, NaN, NaN, 0.0323506, "- N/A -   "
2.06, 89.40418, 0.00356257, NaN, NaN, NaN, 0.0323506, "- N/A -   "
2.1, 90.9375, 0.00362366, NaN, NaN, NaN, 0.0347922, "- N/A -   "
2.14, 92.47082, 0.00368197, NaN, NaN, NaN, 0.0384545, "- N/A -   "
2.18, 93.76824, 0.00374306, NaN, NaN, NaN, 0.04089605, "- N/A -   "
2.22, 95.30156, 0.0038097, NaN, NaN, NaN, 0.04089605, "- N/A -   "
2.26, 96.95282, 0.00387912, NaN, NaN, NaN, 0.04089605, "- N/A -   "
2.3, 98.60408, 0.00394299, NaN, NaN, NaN, 0.04089605, "- N/A -   "
2.34, 100.255, 0.00401796, NaN, NaN, NaN, 0.0384545, "- N/A -   "
2.38, 101.907, 0.00409016, NaN, NaN, NaN, 0.03601294, "- N/A -   "
2.42, 103.558, 0.0041568, NaN, NaN, NaN, 0.0347922, "- N/A -   "
2.46, 105.091, 0.00422344, NaN, NaN, NaN, 0.0347922, "- N/A -   "
2.5, 106.625, 0.004287305, NaN, NaN, NaN, 0.03601294, "- N/A -   "
2.54, 108.158, 0.004353947, NaN, NaN, NaN, 0.03601294, "- N/A -   "
2.58, 110.045, 0.00442892, NaN, NaN, NaN, 0.0323506, "- N/A -   "
2.62, 111.696, 0.004498338, NaN, NaN, NaN, 0.03112983, "- N/A -   "
2.66, 113.348, 0.00456498, NaN, NaN, NaN, 0.03112983, "- N/A -   "
2.7, 114.763, 0.00462885, NaN, NaN, NaN, 0.0323506, "- N/A -   "
2.74, 116.178, 0.00469271, NaN, NaN, NaN, 0.0335714, "- N/A -   "
2.78, 117.947, 0.00475935, NaN, NaN, NaN, 0.0335714, "- N/A -   "
2.82, 119.481, 0.004825995, NaN, NaN, NaN, 0.0335714, "- N/A -   "
2.86, 120.778, 0.004887083, NaN, NaN, NaN, 0.0372337, "- N/A -   "
2.9, 122.194, 0.004948172, NaN, NaN, NaN, 0.0396753, "- N/A -   "
[...]
34.27, 1388.17, 0.05722608, NaN, NaN, NaN, 0.04089605, "- N/A -   "
34.53, 1400.33, 0.0576731, NaN, NaN, NaN, 0.0347922, "- N/A -   "
34.79, 1412.14, 0.0581202, NaN, NaN, NaN, 0.0299091, "- N/A -   "
35.05, 1422.51, 0.05852005, NaN, NaN, NaN, 0.0445584, "- N/A -   "
35.31, 1435.15, 0.05898654, NaN, NaN, NaN, 0.0299091, "- N/A -   "
35.57, 1446.48, 0.0594058, NaN, NaN, NaN, 0.03601294, "- N/A -   "
35.83, 1457.93, 0.0598335, NaN, NaN, NaN, 0.0384545, "- N/A -   "
36.09, 1469.62, 0.0602694, NaN, NaN, NaN, 0.0372337, "- N/A -   "
36.35, 1481.18, 0.06069702, NaN, NaN, NaN, 0.0396753, "- N/A -   "
36.61, 1492.87, 0.0611385, NaN, NaN, NaN, 0.03601294, "- N/A -   "
36.87, 1504.56, 0.0615745, NaN, NaN, NaN, 0.0347922, "- N/A -   "
37.13, 1515.41, 0.0619827, NaN, NaN, NaN, 0.04699994, "- N/A -   "
37.39, 1527.81, 0.06244082, NaN, NaN, NaN, 0.03601294, "- N/A -   "
37.65, 1539.5, 0.06287122, NaN, NaN, NaN, 0.0372337, "- N/A -   "
37.91, 1551.3, 0.0633127, NaN, NaN, NaN, 0.0323506, "- N/A -   "
38.17, 1563.23, 0.06375978, NaN, NaN, NaN, 0.0274675, "- N/A -   "
38.43, 1573.72, 0.06415408, NaN, NaN, NaN, 0.0433376, "- N/A -   "
38.69, 1586.24, 0.0646178, NaN, NaN, NaN, 0.03112983, "- N/A -   "
38.95, 1597.57, 0.06504264, NaN, NaN, NaN, 0.0347922, "- N/A -   "
39.21, 1609.14, 0.0654675, NaN, NaN, NaN, 0.0372337, "- N/A -   "
39.47, 1620.83, 0.0659062, NaN, NaN, NaN, 0.0347922, "- N/A -   "
39.73, 1631.92, 0.0663255, NaN, NaN, NaN, 0.04089605, "- N/A -   "
39.99, 1644.08, 0.06677255, NaN, NaN, NaN, 0.03601294, "- N/A -   "
40.25, 1655.53, 0.06720573, NaN, NaN, NaN, 0.03601294, "- N/A -   "
40.51, 1666.62, 0.0676222, NaN, NaN, NaN, 0.0433376, "- N/A -   "
40.77, 1678.9, 0.06807763, NaN, NaN, NaN, 0.0335714, "- N/A -   "
41.03, 1690.23, 0.06850802, NaN, NaN, NaN, 0.0347922, "- N/A -   "
41.29, 1701.56, 0.06893287, NaN, NaN, NaN, 0.0384545, "- N/A -   "
41.55, 1713.25, 0.0693799, NaN, NaN, NaN, 0.0335714, "- N/A -   "
41.81, 1724.1, 0.06979366, NaN, NaN, NaN, 0.04089605, "- N/A -   "
42.07, 1736.5, 0.07025737, NaN, NaN, NaN, 0.0286883, "- N/A -   "
42.33, 1747.47, 0.07067667, NaN, NaN, NaN, 0.0335714, "- N/A -   "
42.59, 1758.32, 0.07108763, NaN, NaN, NaN, 0.0433376, "- N/A -   "
42.85, 1770.01, 0.07153468, NaN, NaN, NaN, 0.0372337, "- N/A -   "
43.11, 1781.34, 0.0719623, NaN, NaN, NaN, 0.0396753, "- N/A -   "
43.37, 1793.03, 0.07240381, NaN, NaN, NaN, 0.03601294, "- N/A -   "
43.63, 1804.59, 0.07284253, NaN, NaN, NaN, 0.0335714, "- N/A -   "
43.89, 1815.208, 0.07325627, NaN, NaN, NaN, 0.04211683, "- N/A -   "
44.15, 1827.37, 0.0737061, NaN, NaN, NaN, 0.0347922, "- N/A -   "
44.41, 1838.82, 0.0741476, NaN, NaN, NaN, 0.0323506, "- N/A -   "
44.67, 1849.67, 0.07456412, NaN, NaN, NaN, 0.04089605, "- N/A -   "
44.93, 1861.84, 0.07501951, NaN, NaN, NaN, 0.0299091, "- N/A -   "
45.19, 1871.85, 0.07541658, NaN, NaN, NaN, 0.04699994, "- N/A -   "
45.45, 1884.25, 0.0758775, NaN, NaN, NaN, 0.0335714, "- N/A -   "
45.71, 1895.35, 0.0763024, NaN, NaN, NaN, 0.0372337, "- N/A -   "
45.97, 1906.078, 0.07671888, NaN, NaN, NaN, 0.0445584, "- N/A -   "
46.23, 1918.24, 0.07717704, NaN, NaN, NaN, 0.0335714, "- N/A -   "
46.49, 1929.09, 0.07759355, NaN, NaN, NaN, 0.04089605, "- N/A -   "
46.75, 1940.54, 0.0780351, NaN, NaN, NaN, 0.0384545, "- N/A -   "
47.01, 1951.75, 0.07847101, NaN, NaN, NaN, 0.03601294, "- N/A -   "
47.27, 1962.6, 0.07889586, NaN, NaN, NaN, 0.0396753, "- N/A -   "
47.53, 1974.41, 0.07934569, NaN, NaN, NaN, 0.0323506, "- N/A -   "
47.79, 1985.619, 0.07978164, NaN, NaN, NaN, 0.0323506, "- N/A -   "
47.987, 1992.89, 0.08007597, NaN, NaN, NaN, 0.04699994, "- N/A -   "

File: Hamel_ForceTest_Bolt4_Test1.csv
Time, Load (lb), Position (in), AxialStrain (in), TransverseStrain (in), Auxiliary (), Control Out (V), Stress (psi)
0.0,1.06153,0.0, NaN, NaN, NaN,0.04577916," ""- N/A -   """
0.00999999,1.06153,1.66605e-05, NaN, NaN, NaN,0.04577916," ""- N/A -   """
0.06,1.53332,0.000108293, NaN, NaN, NaN,0.04211683," ""- N/A -   """
0.11,2.005107,0.000194373, NaN, NaN, NaN,0.04089605," ""- N/A -   """
0.16,2.241,0.000291559, NaN, NaN, NaN,0.0347922," ""- N/A -   """
0.21,2.83074,0.0003859685, NaN, NaN, NaN,0.0299091," ""- N/A -   """
0.26,3.18458,0.000469271, NaN, NaN, NaN,0.0299091," ""- N/A -   """
0.31,3.53842,0.0005470201, NaN, NaN, NaN,0.0323506," ""- N/A -   """
0.36,3.89227,0.000624769, NaN, NaN, NaN,0.0347922," ""- N/A -   """
0.41,4.246109,0.000705295, NaN, NaN, NaN,0.03601294," ""- N/A -   """
0.46,4.59995,0.0007885975, NaN, NaN, NaN,0.0372337," ""- N/A -   """
0.51,5.071741,0.0008691233, NaN, NaN, NaN,0.0372337," ""- N/A -   """
0.56,5.779426,0.0009440956, NaN, NaN, NaN,0.04211683," ""- N/A -   """
0.61,6.60506,0.001019068, NaN, NaN, NaN,0.0445584," ""- N/A -   """
0.66,7.312743,0.00109404, NaN, NaN, NaN,0.0482207," ""- N/A -   """
0.71,8.37427,0.0011829, NaN, NaN, NaN,0.04577916," ""- N/A -   """
0.76,9.78964,0.00128841, NaN, NaN, NaN,0.0372337," ""- N/A -   """
0.81,11.0871,0.00138282, NaN, NaN, NaN,0.03112983," ""- N/A -   """
0.86,12.3845,0.0014689, NaN, NaN, NaN,0.0299091," ""- N/A -   """
0.91,13.3281,0.001543874, NaN, NaN, NaN,0.0335714," ""- N/A -   """
0.96,14.5075,0.0016244, NaN, NaN, NaN,0.03601294," ""- N/A -   """
1.01,15.687,0.0017077, NaN, NaN, NaN,0.03601294," ""- N/A -   """
1.06,16.9844,0.00179656, NaN, NaN, NaN,0.0335714," ""- N/A -   """
1.11,18.2819,0.00187708, NaN, NaN, NaN,0.0347922," ""- N/A -   """
1.16,19.3434,0.00195483, NaN, NaN, NaN,0.03601294," ""- N/A -   """
1.21,20.52286,0.00202703, NaN, NaN, NaN,0.04089605," ""- N/A -   """
1.26,21.8203,0.002102001, NaN, NaN, NaN,0.0445584," ""- N/A -   """
1.31,23.2357,0.00219086, NaN, NaN, NaN,0.0433376," ""- N/A -   """
1.36,24.65102,0.00227416, NaN, NaN, NaN,0.04211683," ""- N/A -   """
1.41,26.18434,0.00236579, NaN, NaN, NaN,0.0384545," ""- N/A -   """
1.46,27.5997,0.00245465, NaN, NaN, NaN,0.0372337," ""- N/A -   """
1.51,29.133,0.002537951, NaN, NaN, NaN,0.03601294," ""- N/A -   """
1.56,30.5484,0.00262125, NaN, NaN, NaN,0.03601294," ""- N/A -   """
1.61,32.1997,0.00271011, NaN, NaN, NaN,0.0335714," ""- N/A -   """
1.66,33.73298,0.00279341, NaN, NaN, NaN,0.0335714," ""- N/A -   """
1.71,35.1483,0.00287949, NaN, NaN, NaN,0.0323506," ""- N/A -   """
1.76,36.6817,0.002957241, NaN, NaN, NaN,0.0347922," ""- N/A -   """
1.81,38.097,0.00304054, NaN, NaN, NaN,0.0347922," ""- N/A -   """
1.86,39.8662,0.00313218, NaN, NaN, NaN,0.03112983," ""- N/A -   """
1.91,41.39956,0.003209925, NaN, NaN, NaN,0.0347922," ""- N/A -   """
1.96,42.93288,0.00328767, NaN, NaN, NaN,0.0372337," ""- N/A -   """
2.01,44.34825,0.00335987, NaN, NaN, NaN,0.04089605," ""- N/A -   """
2.06,45.6457,0.00343484, NaN, NaN, NaN,0.04577916," ""- N/A -   """
2.11,47.5328,0.00352092, NaN, NaN, NaN,0.0433376," ""- N/A -   """
2.16,49.5379,0.003615331, NaN, NaN, NaN,0.0384545," ""- N/A -   """
2.21,51.30715,0.00370974, NaN, NaN, NaN,0.0347922," ""- N/A -   """
2.26,52.9584,0.003793043, NaN, NaN, NaN,0.0335714," ""- N/A -   """
2.31,54.7276,0.00387912, NaN, NaN, NaN,0.0323506," ""- N/A -   """
2.36,56.2609,0.00395965, NaN, NaN, NaN,0.0347922," ""- N/A -   """
2.41,58.26605,0.004051281, NaN, NaN, NaN,0.0299091," ""- N/A -   """
2.46,60.0353,0.00413736, NaN, NaN, NaN,0.0286883," ""- N/A -   """
2.51,61.56858,0.00421789, NaN, NaN, NaN,0.0299091," ""- N/A -   """
2.56,63.1019,0.00429008, NaN, NaN, NaN,0.0347922," ""- N/A -   """
2.61,64.28137,0.0043595, NaN, NaN, NaN,0.04089605," ""- N/A -   """
2.66,65.81469,0.004434473, NaN, NaN, NaN,0.04577916," ""- N/A -   """
2.71,67.46596,0.004515, NaN, NaN, NaN,0.04699994," ""- N/A -   """
2.76,69.35311,0.004601078, NaN, NaN, NaN,0.0445584," ""- N/A -   """
2.81,71.24027,0.004695487, NaN, NaN, NaN,0.0396753," ""- N/A -   """
2.86,73.00948,0.00478712, NaN, NaN, NaN,0.03601294," ""- N/A -   """
2.91,74.8966,0.004870423, NaN, NaN, NaN,0.03601294," ""- N/A -   """
2.96,76.6659,0.004959279, NaN, NaN, NaN,0.0335714," ""- N/A -   """
3.01,78.55301,0.00505369, NaN, NaN, NaN,0.0286883," ""- N/A -   """
3.06,80.20428,0.005136991, NaN, NaN, NaN,0.0299091," ""- N/A -   """
3.11,81.7376,0.00521752, NaN, NaN, NaN,0.0299091," ""- N/A -   """
3.16,83.50681,0.00530082, NaN, NaN, NaN,0.0299091," ""- N/A -   """
3.21,84.92217,0.00537301, NaN, NaN, NaN,0.0347922," ""- N/A -   """
3.26,86.33755,0.00544521, NaN, NaN, NaN,0.0396753," ""- N/A -   """
3.31,87.9888,0.00552574, NaN, NaN, NaN,0.04211683," ""- N/A -   """
3.36,89.87598,0.00561182, NaN, NaN, NaN,0.0396753," ""- N/A -   """
3.41,91.2913,0.00568401, NaN, NaN, NaN,0.04577916," ""- N/A -   """
3.46,92.94261,0.00576454, NaN, NaN, NaN,0.04699994," ""- N/A -   """
3.51,95.06567,0.005861723, NaN, NaN, NaN,0.04089605," ""- N/A -   """
3.56,97.30666,0.005964463, NaN, NaN, NaN,0.0323506," ""- N/A -   """
3.61,98.9579,0.00605332, NaN, NaN, NaN,0.03112983," ""- N/A -   """
3.66,100.6092,0.006131068, NaN, NaN, NaN,0.0323506," ""- N/A -   """
3.71,102.3784,0.006219924, NaN, NaN, NaN,0.03112983," ""- N/A -   """
3.76,104.03,0.006297673, NaN, NaN, NaN,0.0323506," ""- N/A -   """
3.81,105.563,0.006378199, NaN, NaN, NaN,0.0335714," ""- N/A -   """
3.86,107.214,0.006455948, NaN, NaN, NaN,0.03601294," ""- N/A -   """
3.91,108.983,0.00654203, NaN, NaN, NaN,0.0347922," ""- N/A -   """
3.96,110.517,0.006617, NaN, NaN, NaN,0.0384545," ""- N/A -   """
4.01,111.696,0.00668642, NaN, NaN, NaN,0.0445584," ""- N/A -   """
4.06,113.583,0.006766944, NaN, NaN, NaN,0.04577916," ""- N/A -   """
4.11,115.353,0.00685302, NaN, NaN, NaN,0.04577916," ""- N/A -   """
4.16,117.476,0.00695021, NaN, NaN, NaN,0.0384545," ""- N/A -   """
4.21,119.481,0.00704462, NaN, NaN, NaN,0.0335714," ""- N/A -   """
4.26,121.132,0.0071307, NaN, NaN, NaN,0.0323506," ""- N/A -   """
4.31,122.783,0.00721122, NaN, NaN, NaN,0.0335714," ""- N/A -   """
4.36,124.435,0.00729175, NaN, NaN, NaN,0.0347922," ""- N/A -   """
4.41,126.204,0.00737505, NaN, NaN, NaN,0.0347922," ""- N/A -   """
4.46,128.091,0.007466686, NaN, NaN, NaN,0.0323506," ""- N/A -   """
4.51,129.86,0.007552765, NaN, NaN, NaN,0.0299091," ""- N/A -   """
4.56,131.393,0.00762774, NaN, NaN, NaN,0.0335714," ""- N/A -   """
4.61,133.045,0.007705487, NaN, NaN, NaN,0.03601294," ""- N/A -   """
4.66,134.46,0.007777682, NaN, NaN, NaN,0.04089605," ""- N/A -   """
4.71,136.347,0.007863761, NaN, NaN, NaN,0.0396753," ""- N/A -   """
4.76,137.999,0.007944287, NaN, NaN, NaN,0.04089605," ""- N/A -   """
4.81,139.65,0.00802759, NaN, NaN, NaN,0.04089605," ""- N/A -   """
4.86,141.537,0.008116446, NaN, NaN, NaN,0.0396753," ""- N/A -   """
4.91,143.424,0.008202525, NaN, NaN, NaN,0.0372337," ""- N/A -   """
4.96,145.193,0.008288604, NaN, NaN, NaN,0.03601294," ""- N/A -   """
5.01,146.963,0.008374684, NaN, NaN, NaN,0.0347922," ""- N/A -   """
5.06,148.6138,0.008460763, NaN, NaN, NaN,0.0335714," ""- N/A -   """
5.11,150.383,0.008541289, NaN, NaN, NaN,0.0347922," ""- N/A -   """
5.16,152.388,0.008632922, NaN, NaN, NaN,0.03112983," ""- N/A -   """
5.21,154.0394,0.008716225, NaN, NaN, NaN,0.03112983," ""- N/A -   """
[...]
25.74,893.063,0.04292303, NaN, NaN, NaN,0.0347922," ""- N/A -   """
25.83,896.4934,0.0430646, NaN, NaN, NaN,0.0396753," ""- N/A -   """
25.92,899.805,0.04320348, NaN, NaN, NaN,0.0445584," ""- N/A -   """
26.01,903.7085,0.0433534, NaN, NaN, NaN,0.0433376," ""- N/A -   """
26.1,908.2031,0.0435284, NaN, NaN, NaN,0.0335714," ""- N/A -   """
26.19,911.752,0.04367831, NaN, NaN, NaN,0.0347922," ""- N/A -   """
26.28,915.537,0.0438255, NaN, NaN, NaN,0.03601294," ""- N/A -   """
26.37,919.558,0.043981, NaN, NaN, NaN,0.0323506," ""- N/A -   """
26.46,922.87,0.04412259, NaN, NaN, NaN,0.0372337," ""- N/A -   """
26.55,926.1818,0.04425587, NaN, NaN, NaN,0.0445584," ""- N/A -   """
26.64,929.967,0.0444086, NaN, NaN, NaN,0.0433376," ""- N/A -   """
26.73,934.2249,0.04457242, NaN, NaN, NaN,0.0372337," ""- N/A -   """
26.82,938.3648,0.0447307, NaN, NaN, NaN,0.0323506," ""- N/A -   """
26.91,942.3863,0.04489175, NaN, NaN, NaN,0.0274675," ""- N/A -   """
27,946.053,0.0450417, NaN, NaN, NaN,0.0274675," ""- N/A -   """
27.09,949.128,0.04516665, NaN, NaN, NaN,0.0384545," ""- N/A -   """
27.18,952.3219,0.0453027, NaN, NaN, NaN,0.0445584," ""- N/A -   """
27.27,956.2252,0.04545543, NaN, NaN, NaN,0.0445584," ""- N/A -   """
27.36,960.1284,0.04560815, NaN, NaN, NaN,0.0433376," ""- N/A -   """
27.45,964.7414,0.0457831, NaN, NaN, NaN,0.0323506," ""- N/A -   """
27.54,968.6447,0.04593581, NaN, NaN, NaN,0.0299091," ""- N/A -   """
27.63,972.0748,0.0460774, NaN, NaN, NaN,0.0347922," ""- N/A -   """
27.72,975.505,0.04621348, NaN, NaN, NaN,0.0396753," ""- N/A -   """
27.81,979.408,0.04636343, NaN, NaN, NaN,0.0396753," ""- N/A -   """
27.9,982.957,0.0465078, NaN, NaN, NaN,0.04211683," ""- N/A -   """
27.99,986.742,0.0466578, NaN, NaN, NaN,0.04211683," ""- N/A -   """
28.08,991.473,0.0468327, NaN, NaN, NaN,0.03112983," ""- N/A -   """
28.17,995.731,0.04699375, NaN, NaN, NaN,0.0262467," ""- N/A -   """
28.26,998.688,0.04712426, NaN, NaN, NaN,0.0347922," ""- N/A -   """
28.35,1002.59,0.0472742, NaN, NaN, NaN,0.0347922," ""- N/A -   """
28.44,1006.14,0.0474158, NaN, NaN, NaN,0.0384545," ""- N/A -   """
28.53,1009.33,0.0475491, NaN, NaN, NaN,0.04577916," ""- N/A -   """
28.62,1013.954,0.04771848, NaN, NaN, NaN,0.0372337," ""- N/A -   """
28.71,1017.77,0.0478684, NaN, NaN, NaN,0.0372337," ""- N/A -   """
28.8,1021.71,0.0480211, NaN, NaN, NaN,0.03601294," ""- N/A -   """
28.89,1025.64,0.04817387, NaN, NaN, NaN,0.0347922," ""- N/A -   """
28.98,1029.46,0.04832659, NaN, NaN, NaN,0.0335714," ""- N/A -   """
29.07,1033.15,0.04847376, NaN, NaN, NaN,0.0347922," ""- N/A -   """
29.16,1037.09,0.04862648, NaN, NaN, NaN,0.0335714," ""- N/A -   """
29.25,1040.55,0.0487653, NaN, NaN, NaN,0.0396753," ""- N/A -   """
29.34,1044.244,0.04890693, NaN, NaN, NaN,0.04211683," ""- N/A -   """
29.43,1048.3,0.0490597, NaN, NaN, NaN,0.04089605," ""- N/A -   """
29.52,1052.59,0.049229, NaN, NaN, NaN,0.0335714," ""- N/A -   """
29.61,1056.41,0.04937898, NaN, NaN, NaN,0.0323506," ""- N/A -   """
29.7,1060.58,0.0495345, NaN, NaN, NaN,0.0299091," ""- N/A -   """
29.79,1064.28,0.0496844, NaN, NaN, NaN,0.0299091," ""- N/A -   """
29.88,1067.38,0.04981493, NaN, NaN, NaN,0.0384545," ""- N/A -   """
29.97,1070.96,0.04995099, NaN, NaN, NaN,0.0445584," ""- N/A -   """
30.06,1074.77,0.0501009, NaN, NaN, NaN,0.0445584," ""- N/A -   """
30.15,1079.3,0.05027032, NaN, NaN, NaN,0.03601294," ""- N/A -   """
30.24,1083.24,0.05042859, NaN, NaN, NaN,0.0323506," ""- N/A -   """
30.33,1087.53,0.0505896, NaN, NaN, NaN,0.0274675," ""- N/A -   """
30.42,1091.11,0.050734, NaN, NaN, NaN,0.0299091," ""- N/A -   """
30.433,1091.71,0.0507535, NaN, NaN, NaN,0.0323506," ""- N/A -   """