Folder: DigitalTwins-Machine-Learning/2_Tensile_Data (part 31)

File: Hamel_ForceTest_Bolt8_Test6.csv
Time, Load (lb), Position (in), AxialStrain (in), TransverseStrain (in), Auxiliary (), Control Out (V), Stress (psi)
0.0, 7.430691, 0.0, NaN, NaN, NaN, -0.007935055, "- N/A -   "
0.01, 7.430691, 0.0, NaN, NaN, NaN, -6.103888E-4, "- N/A -   "
0.02, 7.548638, 0.0, NaN, NaN, NaN, 0.006714277, "- N/A -   "
0.03, 7.430691, 2.776752E-6, NaN, NaN, NaN, 0.0128182, "- N/A -   "
0.04, 7.548638, 2.776752E-6, NaN, NaN, NaN, 0.0299091, "- N/A -   "
0.05, 7.548638, 8.330256E-6, NaN, NaN, NaN, 0.04699994, "- N/A -   "
0.06, 7.666586, 1.94373e-05, NaN, NaN, NaN, 0.06164927, "- N/A -   "
0.07, 7.90248, 3.3321e-05, NaN, NaN, NaN, 0.0750778, "- N/A -   "
0.08, 8.37427, 5.5535e-05, NaN, NaN, NaN, 0.08606482, "- N/A -   "
0.09, 8.610166, 7.774905E-5, NaN, NaN, NaN, 0.09461027, "- N/A -   "
0.1, 8.964007, 0.000105517, NaN, NaN, NaN, 0.103156, "- N/A -   "
0.11, 9.435798, 0.000136061, NaN, NaN, NaN, 0.104376, "- N/A -   "
0.12, 9.78964, 0.000166605, NaN, NaN, NaN, 0.0982726, "- N/A -   "
0.13, 10.3794, 0.000194373, NaN, NaN, NaN, 0.09338949, "- N/A -   "
0.14, 10.73322, 2.193634E-4, NaN, NaN, NaN, 0.0897272, "- N/A -   "
0.15, 11.0871, 0.000244354, NaN, NaN, NaN, 0.08606482, "- N/A -   "
0.16, 11.4409, 0.000269345, NaN, NaN, NaN, 0.08240249, "- N/A -   "
0.17, 11.7947, 0.000294336, NaN, NaN, NaN, 0.0799609, "- N/A -   "
0.18, 12.14859, 3.165497E-4, NaN, NaN, NaN, 0.0762986, "- N/A -   "
0.19, 12.3845, 0.000338764, NaN, NaN, NaN, 0.0750778, "- N/A -   "
0.2, 12.7383, 0.000358201, NaN, NaN, NaN, 0.07263627, "- N/A -   "
0.21, 13.09217, 3.80415E-4, NaN, NaN, NaN, 0.0701947, "- N/A -   "
0.22, 13.3281, 0.000399852, NaN, NaN, NaN, 0.0689739, "- N/A -   "
0.23, 13.7999, 4.192895E-4, NaN, NaN, NaN, 0.06775316, "- N/A -   "
0.24, 13.9178, 4.387268E-4, NaN, NaN, NaN, 0.06653238, "- N/A -   "
0.25, 14.3896, 4.609408E-4, NaN, NaN, NaN, 0.0640908, "- N/A -   "
0.26, 14.6255, 0.000480378, NaN, NaN, NaN, 0.06287005, "- N/A -   "
0.27, 14.9793, 0.000502592, NaN, NaN, NaN, 0.0604285, "- N/A -   "
0.28, 15.3332, 5.248061E-4, NaN, NaN, NaN, 0.0579869, "- N/A -   "
0.29, 15.687, 5.470201E-4, NaN, NaN, NaN, 0.0555454, "- N/A -   "
0.3, 16.0409, 0.000569234, NaN, NaN, NaN, 0.0531038, "- N/A -   "
0.31, 16.27675, 0.000591448, NaN, NaN, NaN, 0.05066227, "- N/A -   "
0.32, 16.6306, 6.136621E-4, NaN, NaN, NaN, 0.0494415, "- N/A -   "
0.33, 16.9844, 6.330994E-4, NaN, NaN, NaN, 0.04699994, "- N/A -   "
0.34, 17.3383, 0.000655313, NaN, NaN, NaN, 0.0445584, "- N/A -   "
0.35, 17.6921, 0.000677527, NaN, NaN, NaN, 0.0433376, "- N/A -   "
0.36, 17.928, 6.969647E-4, NaN, NaN, NaN, 0.04211683, "- N/A -   "
0.37, 18.3998, 0.000716402, NaN, NaN, NaN, 0.0396753, "- N/A -   "
0.38, 18.6357, 0.000735839, NaN, NaN, NaN, 0.0396753, "- N/A -   "
0.39, 18.8716, 0.0007525, NaN, NaN, NaN, 0.0396753, "- N/A -   "
0.4, 19.1075, 7.691603E-4, NaN, NaN, NaN, 0.0384545, "- N/A -   "
0.41, 19.4613, 7.885975E-4, NaN, NaN, NaN, 0.0384545, "- N/A -   "
0.42, 19.6972, 0.000802481, NaN, NaN, NaN, 0.0384545, "- N/A -   "
0.43, 20.05107, 8.191418E-4, NaN, NaN, NaN, 0.0384545, "- N/A -   "
0.44, 20.169, 8.38579E-4, NaN, NaN, NaN, 0.0384545, "- N/A -   "
0.45, 20.52286, 8.524628E-4, NaN, NaN, NaN, 0.0384545, "- N/A -   "
0.46, 20.7588, 8.691233E-4, NaN, NaN, NaN, 0.0384545, "- N/A -   "
0.47, 20.99465, 8.857838E-4, NaN, NaN, NaN, 0.0384545, "- N/A -   "
0.48, 21.3485, 9.052211E-4, NaN, NaN, NaN, 0.0384545, "- N/A -   "
0.49, 21.5844, 9.218816E-4, NaN, NaN, NaN, 0.0384545, "- N/A -   "
0.5, 21.8203, 9.385421E-4, NaN, NaN, NaN, 0.0372337, "- N/A -   "
0.51, 22.1741, 0.000957979, NaN, NaN, NaN, 0.0372337, "- N/A -   "
0.52, 22.41, 9.746399E-4, NaN, NaN, NaN, 0.03601294, "- N/A -   "
0.53, 22.7639, 9.940772E-4, NaN, NaN, NaN, 0.0347922, "- N/A -   "
0.58, 24.29718, 0.00108571, NaN, NaN, NaN, 0.03112983, "- N/A -   "
0.63, 25.7125, 0.00117179, NaN, NaN, NaN, 0.0299091, "- N/A -   "
0.68, 26.892, 0.00124676, NaN, NaN, NaN, 0.0347922, "- N/A -   "
0.73, 27.95355, 0.0013134, NaN, NaN, NaN, 0.04089605, "- N/A -   "
0.78, 29.133, 0.00138838, NaN, NaN, NaN, 0.04577916, "- N/A -   "
0.83, 30.6663, 0.00147168, NaN, NaN, NaN, 0.04577916, "- N/A -   "
0.88, 32.1997, 0.00155776, NaN, NaN, NaN, 0.0445584, "- N/A -   "
0.93, 33.73298, 0.00164939, NaN, NaN, NaN, 0.0396753, "- N/A -   "
0.98, 35.2663, 0.00174102, NaN, NaN, NaN, 0.03601294, "- N/A -   "
1.03, 36.9176, 0.00182988, NaN, NaN, NaN, 0.0335714, "- N/A -   "
1.08, 38.3329, 0.001913182, NaN, NaN, NaN, 0.0335714, "- N/A -   "
1.13, 39.8662, 0.002002038, NaN, NaN, NaN, 0.03112983, "- N/A -   "
1.18, 41.39956, 0.00209089, NaN, NaN, NaN, 0.0299091, "- N/A -   "
1.23, 42.93288, 0.0021742, NaN, NaN, NaN, 0.0299091, "- N/A -   "
1.28, 44.34825, 0.002249169, NaN, NaN, NaN, 0.0323506, "- N/A -   "
1.33, 45.76362, 0.002326918, NaN, NaN, NaN, 0.03601294, "- N/A -   "
1.38, 46.9431, 0.00239634, NaN, NaN, NaN, 0.04089605, "- N/A -   "
1.43, 48.47641, 0.00247131, NaN, NaN, NaN, 0.0445584, "- N/A -   "
1.48, 50.0097, 0.00255461, NaN, NaN, NaN, 0.0445584, "- N/A -   "
1.53, 51.66099, 0.00263791, NaN, NaN, NaN, 0.04577916, "- N/A -   "
1.58, 53.3123, 0.00272122, NaN, NaN, NaN, 0.0445584, "- N/A -   "
1.63, 55.0815, 0.00281285, NaN, NaN, NaN, 0.04211683, "- N/A -   "
1.68, 56.9686, 0.002910036, NaN, NaN, NaN, 0.0347922, "- N/A -   "
1.73, 58.7378, 0.00300445, NaN, NaN, NaN, 0.0299091, "- N/A -   "
1.78, 60.3891, 0.003084971, NaN, NaN, NaN, 0.03112983, "- N/A -   "
1.83, 62.0404, 0.003168274, NaN, NaN, NaN, 0.0323506, "- N/A -   "
1.88, 63.6916, 0.003246023, NaN, NaN, NaN, 0.0335714, "- N/A -   "
1.93, 65.22495, 0.003323772, NaN, NaN, NaN, 0.03601294, "- N/A -   "
1.98, 66.87622, 0.003404298, NaN, NaN, NaN, 0.0372337, "- N/A -   "
2.03, 68.52748, 0.00349038, NaN, NaN, NaN, 0.03601294, "- N/A -   "
2.08, 70.29669, 0.00356813, NaN, NaN, NaN, 0.0384545, "- N/A -   "
2.13, 71.59412, 0.0036431, NaN, NaN, NaN, 0.0433376, "- N/A -   "
2.18, 73.36333, 0.00372362, NaN, NaN, NaN, 0.0433376, "- N/A -   "
2.23, 75.0146, 0.00380693, NaN, NaN, NaN, 0.0433376, "- N/A -   "
2.28, 77.0197, 0.00390689, NaN, NaN, NaN, 0.0372337, "- N/A -   "
2.33, 78.78891, 0.003995746, NaN, NaN, NaN, 0.0335714, "- N/A -   "
2.38, 80.794, 0.00409016, NaN, NaN, NaN, 0.0286883, "- N/A -   "
2.43, 82.32734, 0.00417068, NaN, NaN, NaN, 0.0299091, "- N/A -   "
2.48, 83.86065, 0.00424565, NaN, NaN, NaN, 0.0335714, "- N/A -   "
2.53, 85.39397, 0.00432063, NaN, NaN, NaN, 0.0372337, "- N/A -   "
2.58, 87.04523, 0.004409482, NaN, NaN, NaN, 0.0347922, "- N/A -   "
2.63, 88.9324, 0.004495561, NaN, NaN, NaN, 0.0335714, "- N/A -   "
2.68, 90.58366, 0.00457886, NaN, NaN, NaN, 0.0335714, "- N/A -   "
2.73, 92.117, 0.004656613, NaN, NaN, NaN, 0.0372337, "- N/A -   "
2.78, 93.53234, 0.004728808, NaN, NaN, NaN, 0.04089605, "- N/A -   "
2.83, 95.18361, 0.004812111, NaN, NaN, NaN, 0.04211683, "- N/A -   "
2.88, 96.83487, 0.00489541, NaN, NaN, NaN, 0.04211683, "- N/A -   "
2.93, 98.60408, 0.004978716, NaN, NaN, NaN, 0.04089605, "- N/A -   "
2.98, 100.3733, 0.005070349, NaN, NaN, NaN, 0.0384545, "- N/A -   "
3.03, 102.025, 0.00515365, NaN, NaN, NaN, 0.0372337, "- N/A -   "
3.08, 103.912, 0.005245284, NaN, NaN, NaN, 0.0335714, "- N/A -   "
3.13, 105.563, 0.00533136, NaN, NaN, NaN, 0.0323506, "- N/A -   "
3.18, 107.0963, 0.005414666, NaN, NaN, NaN, 0.0335714, "- N/A -   "
[...]
29.31, 1132.85, 0.04895969, NaN, NaN, NaN, 0.0347922, "- N/A -   "
29.48, 1139.88, 0.0492207, NaN, NaN, NaN, 0.0445584, "- N/A -   "
29.65, 1148.23, 0.0495289, NaN, NaN, NaN, 0.0335714, "- N/A -   "
29.82, 1156.1, 0.0498094, NaN, NaN, NaN, 0.0347922, "- N/A -   "
29.99, 1163.73, 0.05008983, NaN, NaN, NaN, 0.0372337, "- N/A -   "
30.16, 1171.01, 0.05036195, NaN, NaN, NaN, 0.04089605, "- N/A -   "
30.33, 1179.24, 0.0506563, NaN, NaN, NaN, 0.03601294, "- N/A -   "
30.5, 1187.11, 0.05094507, NaN, NaN, NaN, 0.0335714, "- N/A -   "
30.67, 1194.86, 0.0512311, NaN, NaN, NaN, 0.0323506, "- N/A -   "
30.84, 1202.13, 0.0514976, NaN, NaN, NaN, 0.04211683, "- N/A -   "
31.01, 1210.24, 0.051792, NaN, NaN, NaN, 0.03601294, "- N/A -   "
31.18, 1217.87, 0.05207243, NaN, NaN, NaN, 0.0372337, "- N/A -   "
31.35, 1226.1, 0.0523723, NaN, NaN, NaN, 0.0299091, "- N/A -   "
31.52, 1232.66, 0.0526167, NaN, NaN, NaN, 0.04699994, "- N/A -   "
31.69, 1241.25, 0.05292489, NaN, NaN, NaN, 0.03601294, "- N/A -   "
31.86, 1249.36, 0.053222, NaN, NaN, NaN, 0.0299091, "- N/A -   "
32.03, 1256.63, 0.05349135, NaN, NaN, NaN, 0.03601294, "- N/A -   "
32.2, 1263.79, 0.05375792, NaN, NaN, NaN, 0.0433376, "- N/A -   "
32.37, 1272.02, 0.0540606, NaN, NaN, NaN, 0.0347922, "- N/A -   "
32.54, 1280.24, 0.0543577, NaN, NaN, NaN, 0.0286883, "- N/A -   "
32.71, 1287.4, 0.0546215, NaN, NaN, NaN, 0.0372337, "- N/A -   "
32.88, 1294.554, 0.0548881, NaN, NaN, NaN, 0.0445584, "- N/A -   "
33.05, 1303.14, 0.05519905, NaN, NaN, NaN, 0.0335714, "- N/A -   "
33.22, 1310.77, 0.05547673, NaN, NaN, NaN, 0.0347922, "- N/A -   "
33.39, 1318.52, 0.0557627, NaN, NaN, NaN, 0.0347922, "- N/A -   "
33.56, 1325.68, 0.0560293, NaN, NaN, NaN, 0.04089605, "- N/A -   "
33.73, 1333.79, 0.0563236, NaN, NaN, NaN, 0.03601294, "- N/A -   "
33.9, 1341.897, 0.056618, NaN, NaN, NaN, 0.03112983, "- N/A -   "
34.07, 1349.41, 0.0568956, NaN, NaN, NaN, 0.0347922, "- N/A -   "
34.24, 1356.565, 0.0571622, NaN, NaN, NaN, 0.04211683, "- N/A -   "
34.41, 1364.44, 0.05744822, NaN, NaN, NaN, 0.0396753, "- N/A -   "
34.58, 1372.664, 0.05774811, NaN, NaN, NaN, 0.0323506, "- N/A -   "
34.75, 1380.65, 0.0580369, NaN, NaN, NaN, 0.0299091, "- N/A -   "
34.92, 1387.21, 0.0582812, NaN, NaN, NaN, 0.04699994, "- N/A -   "
35.09, 1395.68, 0.0585895, NaN, NaN, NaN, 0.03601294, "- N/A -   "
35.26, 1404.03, 0.0588894, NaN, NaN, NaN, 0.0286883, "- N/A -   "
35.43, 1411.42, 0.0591615, NaN, NaN, NaN, 0.0347922, "- N/A -   "
35.6, 1418.46, 0.05942527, NaN, NaN, NaN, 0.0445584, "- N/A -   "
35.77, 1426.33, 0.0597113, NaN, NaN, NaN, 0.04211683, "- N/A -   "
35.94, 1434.79, 0.0600195, NaN, NaN, NaN, 0.03112983, "- N/A -   "
36.11, 1442.07, 0.0602916, NaN, NaN, NaN, 0.03601294, "- N/A -   "
36.28, 1449.1, 0.0605526, NaN, NaN, NaN, 0.04577916, "- N/A -   "
36.45, 1457.69, 0.0608636, NaN, NaN, NaN, 0.0335714, "- N/A -   "
36.62, 1465.2, 0.0611469, NaN, NaN, NaN, 0.0335714, "- N/A -   "
36.79, 1472.84, 0.0614273, NaN, NaN, NaN, 0.0347922, "- N/A -   "
36.96, 1479.99, 0.0616967, NaN, NaN, NaN, 0.04211683, "- N/A -   "
37.13, 1487.86, 0.06197988, NaN, NaN, NaN, 0.04089605, "- N/A -   "
37.3, 1495.85, 0.06227977, NaN, NaN, NaN, 0.0347922, "- N/A -   "
37.47, 1503.48, 0.0625658, NaN, NaN, NaN, 0.0323506, "- N/A -   "
37.64, 1510.76, 0.06283512, NaN, NaN, NaN, 0.0396753, "- N/A -   "
37.81, 1518.15, 0.06311002, NaN, NaN, NaN, 0.0433376, "- N/A -   "
37.98, 1526.38, 0.06341824, NaN, NaN, NaN, 0.0323506, "- N/A -   "
38.15, 1534.131, 0.0637015, NaN, NaN, NaN, 0.03112983, "- N/A -   "
38.32, 1540.81, 0.0639597, NaN, NaN, NaN, 0.04211683, "- N/A -   "
38.383, 1543.31, 0.06405689, NaN, NaN, NaN, 0.04577916, "- N/A -   "

File: Hamel_ForceTest_Bolt8_Test7.csv
Time, Load (lb), Position (in), AxialStrain (in), TransverseStrain (in), Auxiliary (), Control Out (V), Stress (psi)
0.0, 16.86649, 0.0, NaN, NaN, NaN, -0.006714277, "- N/A -   "
0.01, 16.9844, 2.776752E-6, NaN, NaN, NaN, -6.103888E-4, "- N/A -   "
0.02, 16.86649, 2.776752E-6, NaN, NaN, NaN, 0.006714277, "- N/A -   "
0.03, 16.9844, 2.776752E-6, NaN, NaN, NaN, 0.0177013, "- N/A -   "
0.04, 16.86649, 5.553504E-6, NaN, NaN, NaN, 0.03601294, "- N/A -   "
0.05, 16.9844, 1.38838e-05, NaN, NaN, NaN, 0.05188305, "- N/A -   "
0.06, 17.2203, 2.77675e-05, NaN, NaN, NaN, 0.0653116, "- N/A -   "
0.07, 17.5742, 4.720478E-5, NaN, NaN, NaN, 0.07751938, "- N/A -   "
0.08, 17.928, 6.6642e-05, NaN, NaN, NaN, 0.0872856, "- N/A -   "
0.09, 18.2819, 9.440956E-5, NaN, NaN, NaN, 0.095831, "- N/A -   "
0.1, 18.7536, 0.000124954, NaN, NaN, NaN, 0.101935, "- N/A -   "
0.11, 19.3434, 0.000152721, NaN, NaN, NaN, 0.095831, "- N/A -   "
0.12, 19.6972, 0.000183266, NaN, NaN, NaN, 0.09094793, "- N/A -   "
0.13, 20.05107, 0.000208256, NaN, NaN, NaN, 0.0872856, "- N/A -   "
0.14, 20.4049, 2.304704E-4, NaN, NaN, NaN, 0.084844, "- N/A -   "
0.15, 20.7588, 2.526844E-4, NaN, NaN, NaN, 0.08118171, "- N/A -   "
0.16, 21.1126, 0.000274898, NaN, NaN, NaN, 0.07874016, "- N/A -   "
0.17, 21.3485, 0.000297112, NaN, NaN, NaN, 0.0762986, "- N/A -   "
0.18, 21.5844, 0.000319326, NaN, NaN, NaN, 0.07385705, "- N/A -   "
0.19, 22.0562, 0.00034154, NaN, NaN, NaN, 0.07263627, "- N/A -   "
0.2, 22.41, 0.000360978, NaN, NaN, NaN, 0.0701947, "- N/A -   "
0.21, 22.6459, 3.80415E-4, NaN, NaN, NaN, 0.0689739, "- N/A -   "
0.22, 22.88181, 0.000402629, NaN, NaN, NaN, 0.06775316, "- N/A -   "
0.23, 23.2357, 0.000422066, NaN, NaN, NaN, 0.06653238, "- N/A -   "
0.24, 23.5895, 4.442803E-4, NaN, NaN, NaN, 0.06287005, "- N/A -   "
0.25, 23.82539, 4.664943E-4, NaN, NaN, NaN, 0.0604285, "- N/A -   "
0.26, 24.1792, 0.000485932, NaN, NaN, NaN, 0.0592077, "- N/A -   "
0.27, 24.4151, 5.081456E-4, NaN, NaN, NaN, 0.0579869, "- N/A -   "
0.28, 24.65102, 0.000527583, NaN, NaN, NaN, 0.0555454, "- N/A -   "
0.29, 25.0049, 5.470201E-4, NaN, NaN, NaN, 0.0543246, "- N/A -   "
0.3, 25.2408, 5.720109E-4, NaN, NaN, NaN, 0.05188305, "- N/A -   "
0.31, 25.5946, 0.000591448, NaN, NaN, NaN, 0.0494415, "- N/A -   "
0.32, 25.8305, 6.108854E-4, NaN, NaN, NaN, 0.0482207, "- N/A -   "
0.33, 26.0664, 6.330994E-4, NaN, NaN, NaN, 0.04699994, "- N/A -   "
0.34, 26.4202, 6.525367E-4, NaN, NaN, NaN, 0.0445584, "- N/A -   "
0.35, 26.6561, 6.719739E-4, NaN, NaN, NaN, 0.0433376, "- N/A -   "
0.36, 26.892, 0.000694188, NaN, NaN, NaN, 0.04211683, "- N/A -   "
0.37, 27.1279, 7.136252E-4, NaN, NaN, NaN, 0.04089605, "- N/A -   "
0.38, 27.3638, 7.302857E-4, NaN, NaN, NaN, 0.0396753, "- N/A -   "
0.39, 27.5997, 7.49723E-4, NaN, NaN, NaN, 0.0396753, "- N/A -   "
0.4, 27.95355, 7.663835E-4, NaN, NaN, NaN, 0.0384545, "- N/A -   "
0.41, 28.0715, 0.000783044, NaN, NaN, NaN, 0.0384545, "- N/A -   "
0.42, 28.3074, 7.997045E-4, NaN, NaN, NaN, 0.0384545, "- N/A -   "
0.43, 28.54329, 8.191418E-4, NaN, NaN, NaN, 0.0384545, "- N/A -   "
0.44, 28.89713, 8.358023E-4, NaN, NaN, NaN, 0.0372337, "- N/A -   "
0.45, 29.0151, 8.552396E-4, NaN, NaN, NaN, 0.03601294, "- N/A -   "
0.46, 29.133, 0.0008719, NaN, NaN, NaN, 0.03601294, "- N/A -   "
0.47, 29.4869, 8.885606E-4, NaN, NaN, NaN, 0.03601294, "- N/A -   "
0.48, 29.4869, 9.052211E-4, NaN, NaN, NaN, 0.0372337, "- N/A -   "
0.49, 29.84071, 0.000919105, NaN, NaN, NaN, 0.0372337, "- N/A -   "
0.5, 30.0766, 9.385421E-4, NaN, NaN, NaN, 0.0372337, "- N/A -   "
0.51, 30.3125, 9.552026E-4, NaN, NaN, NaN, 0.03601294, "- N/A -   "
0.55, 31.1381, 0.00103295, NaN, NaN, NaN, 0.03112983, "- N/A -   "
0.59, 31.9638, 0.00110237, NaN, NaN, NaN, 0.0299091, "- N/A -   "
0.63, 32.9073, 0.00116624, NaN, NaN, NaN, 0.03112983, "- N/A -   "
0.67, 33.61503, 0.0012301, NaN, NaN, NaN, 0.0323506, "- N/A -   "
0.71, 34.3227, 0.00128841, NaN, NaN, NaN, 0.03601294, "- N/A -   "
0.75, 34.9125, 0.00134395, NaN, NaN, NaN, 0.04089605, "- N/A -   "
0.79, 35.6201, 0.00140226, NaN, NaN, NaN, 0.0445584, "- N/A -   "
0.83, 36.44577, 0.00146612, NaN, NaN, NaN, 0.04699994, "- N/A -   "
0.87, 37.2714, 0.00152721, NaN, NaN, NaN, 0.0482207, "- N/A -   "
0.91, 37.9791, 0.00160496, NaN, NaN, NaN, 0.0433376, "- N/A -   "
0.95, 38.9227, 0.00167993, NaN, NaN, NaN, 0.0396753, "- N/A -   "
0.99, 39.7483, 0.00175213, NaN, NaN, NaN, 0.0372337, "- N/A -   "
1.03, 40.69188, 0.0018271, NaN, NaN, NaN, 0.0335714, "- N/A -   "
1.07, 41.39956, 0.00189374, NaN, NaN, NaN, 0.0335714, "- N/A -   "
1.11, 42.3431, 0.001968717, NaN, NaN, NaN, 0.0299091, "- N/A -   "
1.15, 43.1688, 0.00204091, NaN, NaN, NaN, 0.0274675, "- N/A -   "
1.19, 43.9944, 0.00211033, NaN, NaN, NaN, 0.0274675, "- N/A -   "
1.23, 44.70209, 0.00216587, NaN, NaN, NaN, 0.03112983, "- N/A -   "
1.27, 45.5277, 0.00223251, NaN, NaN, NaN, 0.03112983, "- N/A -   "
1.31, 46.11746, 0.00229082, NaN, NaN, NaN, 0.03601294, "- N/A -   "
1.35, 46.9431, 0.00235191, NaN, NaN, NaN, 0.0384545, "- N/A -   "
1.39, 47.65078, 0.002413, NaN, NaN, NaN, 0.0396753, "- N/A -   "
1.43, 48.3585, 0.00247131, NaN, NaN, NaN, 0.0433376, "- N/A -   "
1.47, 49.0661, 0.00253517, NaN, NaN, NaN, 0.0445584, "- N/A -   "
1.51, 49.8918, 0.00260459, NaN, NaN, NaN, 0.0445584, "- N/A -   "
1.55, 50.7174, 0.00266568, NaN, NaN, NaN, 0.04577916, "- N/A -   "
1.59, 51.66099, 0.0027351, NaN, NaN, NaN, 0.04577916, "- N/A -   "
1.63, 52.36868, 0.002807296, NaN, NaN, NaN, 0.04211683, "- N/A -   "
1.67, 53.4302, 0.00288505, NaN, NaN, NaN, 0.0384545, "- N/A -   "
1.71, 54.4917, 0.002965571, NaN, NaN, NaN, 0.03112983, "- N/A -   "
1.75, 55.43531, 0.00303777, NaN, NaN, NaN, 0.0286883, "- N/A -   "
1.79, 56.2609, 0.00310441, NaN, NaN, NaN, 0.0286883, "- N/A -   "
1.83, 56.9686, 0.003168274, NaN, NaN, NaN, 0.0299091, "- N/A -   "
1.87, 57.79426, 0.00323214, NaN, NaN, NaN, 0.03112983, "- N/A -   "
1.91, 58.5019, 0.00329323, NaN, NaN, NaN, 0.0347922, "- N/A -   "
1.95, 59.4455, 0.003357093, NaN, NaN, NaN, 0.0347922, "- N/A -   "
1.99, 60.3891, 0.00342096, NaN, NaN, NaN, 0.0372337, "- N/A -   "
2.03, 61.09679, 0.00348482, NaN, NaN, NaN, 0.0384545, "- N/A -   "
2.07, 62.0404, 0.00355147, NaN, NaN, NaN, 0.0372337, "- N/A -   "
2.11, 62.866, 0.003615331, NaN, NaN, NaN, 0.0396753, "- N/A -   "
2.15, 63.5737, 0.00367364, NaN, NaN, NaN, 0.04211683, "- N/A -   "
2.19, 64.3993, 0.00373473, NaN, NaN, NaN, 0.0445584, "- N/A -   "
2.23, 65.3429, 0.00380415, NaN, NaN, NaN, 0.0445584, "- N/A -   "
2.27, 66.52237, 0.003881899, NaN, NaN, NaN, 0.0384545, "- N/A -   "
2.31, 67.34801, 0.00395409, NaN, NaN, NaN, 0.03601294, "- N/A -   "
2.35, 68.40953, 0.00402907, NaN, NaN, NaN, 0.0335714, "- N/A -   "
2.39, 69.35311, 0.00410126, NaN, NaN, NaN, 0.0299091, "- N/A -   "
2.43, 70.29669, 0.00417068, NaN, NaN, NaN, 0.0299091, "- N/A -   "
2.47, 71.12233, 0.004234547, NaN, NaN, NaN, 0.0299091, "- N/A -   "
2.51, 71.83001, 0.00429286, NaN, NaN, NaN, 0.0335714, "- N/A -   "
2.55, 72.77359, 0.00435672, NaN, NaN, NaN, 0.03601294, "- N/A -   "
2.59, 73.71717, 0.00442892, NaN, NaN, NaN, 0.0323506, "- N/A -   "
2.63, 74.7787, 0.00450111, NaN, NaN, NaN, 0.03112983, "- N/A -   "
2.67, 75.6043, 0.00455943, NaN, NaN, NaN, 0.0335714, "- N/A -   "
2.71, 76.31202, 0.004620515, NaN, NaN, NaN, 0.0372337, "- N/A -   "
[...]
29.5, 1100.41, 0.049254, NaN, NaN, NaN, 0.0433376, "- N/A -   "
29.71, 1111.03, 0.0496372, NaN, NaN, NaN, 0.0299091, "- N/A -   "
29.92, 1120.446, 0.04998153, NaN, NaN, NaN, 0.03112983, "- N/A -   "
30.13, 1129.51, 0.05030919, NaN, NaN, NaN, 0.04211683, "- N/A -   "
30.34, 1139.53, 0.05067017, NaN, NaN, NaN, 0.03601294, "- N/A -   "
30.55, 1149.07, 0.05102, NaN, NaN, NaN, 0.03601294, "- N/A -   "
30.76, 1158.61, 0.0513671, NaN, NaN, NaN, 0.0372337, "- N/A -   "
30.97, 1168.15, 0.0517142, NaN, NaN, NaN, 0.04089605, "- N/A -   "
31.18, 1178.164, 0.0520808, NaN, NaN, NaN, 0.0335714, "- N/A -   "
31.39, 1187.7, 0.0524251, NaN, NaN, NaN, 0.0347922, "- N/A -   "
31.6, 1196.65, 0.0527555, NaN, NaN, NaN, 0.0433376, "- N/A -   "
31.81, 1206.9, 0.0531304, NaN, NaN, NaN, 0.0323506, "- N/A -   "
32.02, 1216.32, 0.0534747, NaN, NaN, NaN, 0.0347922, "- N/A -   "
32.23, 1225.39, 0.0538079, NaN, NaN, NaN, 0.04211683, "- N/A -   "
32.44, 1236, 0.05418831, NaN, NaN, NaN, 0.0286883, "- N/A -   "
32.65, 1245.06, 0.0545243, NaN, NaN, NaN, 0.03601294, "- N/A -   "
32.86, 1254.13, 0.0548547, NaN, NaN, NaN, 0.0445584, "- N/A -   "
33.07, 1264.26, 0.055224, NaN, NaN, NaN, 0.0347922, "- N/A -   "
33.28, 1273.68, 0.05557669, NaN, NaN, NaN, 0.0335714, "- N/A -   "
33.49, 1282.87, 0.0559099, NaN, NaN, NaN, 0.04089605, "- N/A -   "
33.7, 1292.65, 0.05627088, NaN, NaN, NaN, 0.03601294, "- N/A -   "
33.91, 1302.42, 0.0566319, NaN, NaN, NaN, 0.0323506, "- N/A -   "
34.12, 1311.96, 0.0569817, NaN, NaN, NaN, 0.0323506, "- N/A -   "
34.33, 1320.55, 0.0572983, NaN, NaN, NaN, 0.04577916, "- N/A -   "
34.54, 1330.93, 0.05767869, NaN, NaN, NaN, 0.0323506, "- N/A -   "
34.75, 1340.59, 0.05803134, NaN, NaN, NaN, 0.03112983, "- N/A -   "
34.96, 1348.93, 0.05834511, NaN, NaN, NaN, 0.04699994, "- N/A -   "
35.17, 1359.67, 0.0587311, NaN, NaN, NaN, 0.03112983, "- N/A -   "
35.38, 1369.32, 0.0590865, NaN, NaN, NaN, 0.0299091, "- N/A -   "
35.59, 1377.79, 0.05940305, NaN, NaN, NaN, 0.04577916, "- N/A -   "
35.8, 1387.81, 0.0597668, NaN, NaN, NaN, 0.0384545, "- N/A -   "
36.01, 1397.71, 0.0601278, NaN, NaN, NaN, 0.0335714, "- N/A -   "
36.22, 1406.77, 0.06046655, NaN, NaN, NaN, 0.0396753, "- N/A -   "
36.43, 1416.43, 0.0608247, NaN, NaN, NaN, 0.0347922, "- N/A -   "
36.64, 1425.85, 0.0611718, NaN, NaN, NaN, 0.03601294, "- N/A -   "
36.85, 1435.39, 0.0615189, NaN, NaN, NaN, 0.0384545, "- N/A -   "
37.06, 1444.45, 0.0618577, NaN, NaN, NaN, 0.04211683, "- N/A -   "
37.27, 1454.35, 0.0622215, NaN, NaN, NaN, 0.03601294, "- N/A -   "
37.48, 1463.77, 0.06257688, NaN, NaN, NaN, 0.0347922, "- N/A -   "
37.69, 1472.95, 0.06291287, NaN, NaN, NaN, 0.0396753, "- N/A -   "
37.9, 1482.972, 0.06328218, NaN, NaN, NaN, 0.0323506, "- N/A -   "
38.11, 1492.63, 0.0636376, NaN, NaN, NaN, 0.0299091, "- N/A -   "
38.32, 1500.86, 0.0639514, NaN, NaN, NaN, 0.0445584, "- N/A -   "
38.53, 1511, 0.0643235, NaN, NaN, NaN, 0.0347922, "- N/A -   "
38.74, 1520.89, 0.06468999, NaN, NaN, NaN, 0.0274675, "- N/A -   "
38.95, 1529.12, 0.06500376, NaN, NaN, NaN, 0.0433376, "- N/A -   "
39.16, 1538.782, 0.06536196, NaN, NaN, NaN, 0.0396753, "- N/A -   "
39.37, 1548.8, 0.06573404, NaN, NaN, NaN, 0.03112983, "- N/A -   "
39.58, 1557.98, 0.06607281, NaN, NaN, NaN, 0.0347922, "- N/A -   "
39.79, 1567.164, 0.0664088, NaN, NaN, NaN, 0.04211683, "- N/A -   "
40, 1576.82, 0.06676977, NaN, NaN, NaN, 0.0372337, "- N/A -   "
40.21, 1586.48, 0.06712798, NaN, NaN, NaN, 0.0335714, "- N/A -   "
40.42, 1595.78, 0.06746674, NaN, NaN, NaN, 0.0384545, "- N/A -   "
40.63, 1605.32, 0.06781939, NaN, NaN, NaN, 0.0372337, "- N/A -   "
40.774, 1612, 0.0680665, NaN, NaN, NaN, 0.0347922, "- N/A -   "