Folder: DigitalTwins-Machine-Learning/2_Tensile_Data (part 17)

File: Hamel_ForceTest_Bolt5_Test10.csv
Time, Load (lb), Position (in), AxialStrain (in), TransverseStrain (in), Auxiliary (), Control Out (V), Stress (psi)
0.0, 7.90248, 0.0, NaN, NaN, NaN, -0.006714277, "- N/A -   "
0.01, 8.020428, 2.776752E-6, NaN, NaN, NaN, -6.103888E-4, "- N/A -   "
0.02, 7.90248, 2.776752E-6, NaN, NaN, NaN, 0.01037661, "- N/A -   "
0.03, 8.020428, 5.553504E-6, NaN, NaN, NaN, 0.0286883, "- N/A -   "
0.04, 8.020428, 1.1107e-05, NaN, NaN, NaN, 0.04577916, "- N/A -   "
0.05, 8.256323, 2.2214e-05, NaN, NaN, NaN, 0.0604285, "- N/A -   "
0.06, 8.492218, 4.16513e-05, NaN, NaN, NaN, 0.07263627, "- N/A -   "
0.07, 8.846061, 6.108854E-5, NaN, NaN, NaN, 0.08362327, "- N/A -   "
0.08, 9.31785, 8.607931E-5, NaN, NaN, NaN, 0.09094793, "- N/A -   "
0.09, 9.78964, 0.000113847, NaN, NaN, NaN, 0.09949338, "- N/A -   "
0.1, 10.26143, 0.000141614, NaN, NaN, NaN, 0.103156, "- N/A -   "
0.11, 10.73322, 0.000174935, NaN, NaN, NaN, 0.095831, "- N/A -   "
0.12, 11.323, 0.00020548, NaN, NaN, NaN, 0.0897272, "- N/A -   "
0.13, 11.6768, 2.360239E-4, NaN, NaN, NaN, 0.084844, "- N/A -   "
0.14, 12.2665, 0.000261015, NaN, NaN, NaN, 0.08118171, "- N/A -   "
0.15, 12.5024, 2.832287E-4, NaN, NaN, NaN, 0.07751938, "- N/A -   "
0.16, 12.8563, 3.054427E-4, NaN, NaN, NaN, 0.0750778, "- N/A -   "
0.17, 13.09217, 0.00032488, NaN, NaN, NaN, 0.07385705, "- N/A -   "
0.18, 13.3281, 0.000344317, NaN, NaN, NaN, 0.07385705, "- N/A -   "
0.19, 13.6819, 3.637545E-4, NaN, NaN, NaN, 0.07263627, "- N/A -   "
0.2, 14.0357, 3.80415E-4, NaN, NaN, NaN, 0.07141549, "- N/A -   "
0.21, 14.3896, 0.000402629, NaN, NaN, NaN, 0.0701947, "- N/A -   "
0.22, 14.7434, 0.000422066, NaN, NaN, NaN, 0.0689739, "- N/A -   "
0.23, 14.9793, 0.000441504, NaN, NaN, NaN, 0.06653238, "- N/A -   "
0.24, 15.2152, 4.609408E-4, NaN, NaN, NaN, 0.0653116, "- N/A -   "
0.25, 15.687, 0.000480378, NaN, NaN, NaN, 0.0640908, "- N/A -   "
0.26, 16.0409, 0.000502592, NaN, NaN, NaN, 0.06287005, "- N/A -   "
0.27, 16.27675, 0.000522029, NaN, NaN, NaN, 0.0604285, "- N/A -   "
0.28, 16.6306, 5.442434E-4, NaN, NaN, NaN, 0.0579869, "- N/A -   "
0.29, 16.86649, 5.636806E-4, NaN, NaN, NaN, 0.05676616, "- N/A -   "
0.3, 17.4562, 5.858946E-4, NaN, NaN, NaN, 0.0543246, "- N/A -   "
0.31, 17.6921, 0.000608109, NaN, NaN, NaN, 0.05188305, "- N/A -   "
0.32, 18.046, 0.000630323, NaN, NaN, NaN, 0.05066227, "- N/A -   "
0.33, 18.3998, 6.497599E-4, NaN, NaN, NaN, 0.0494415, "- N/A -   "
0.34, 18.6357, 6.691972E-4, NaN, NaN, NaN, 0.0482207, "- N/A -   "
0.35, 18.9895, 0.000688634, NaN, NaN, NaN, 0.04699994, "- N/A -   "
0.36, 19.3434, 7.080717E-4, NaN, NaN, NaN, 0.0445584, "- N/A -   "
0.37, 19.57928, 7.27509E-4, NaN, NaN, NaN, 0.0433376, "- N/A -   "
0.38, 19.9331, 0.000746946, NaN, NaN, NaN, 0.04211683, "- N/A -   "
0.39, 20.169, 0.000763607, NaN, NaN, NaN, 0.04211683, "- N/A -   "
0.4, 20.52286, 0.000783044, NaN, NaN, NaN, 0.04089605, "- N/A -   "
0.41, 20.8767, 7.997045E-4, NaN, NaN, NaN, 0.04089605, "- N/A -   "
0.42, 21.1126, 0.000821919, NaN, NaN, NaN, 0.0396753, "- N/A -   "
0.43, 21.46644, 8.38579E-4, NaN, NaN, NaN, 0.0396753, "- N/A -   "
0.44, 21.7023, 8.524628E-4, NaN, NaN, NaN, 0.0396753, "- N/A -   "
0.45, 22.0562, 8.691233E-4, NaN, NaN, NaN, 0.0396753, "- N/A -   "
0.46, 22.29207, 8.885606E-4, NaN, NaN, NaN, 0.0396753, "- N/A -   "
0.47, 22.528, 9.052211E-4, NaN, NaN, NaN, 0.0384545, "- N/A -   "
0.48, 22.9998, 9.274351E-4, NaN, NaN, NaN, 0.0372337, "- N/A -   "
0.54, 24.8869, 0.00103851, NaN, NaN, NaN, 0.0323506, "- N/A -   "
0.6, 26.6561, 0.00113847, NaN, NaN, NaN, 0.03112983, "- N/A -   "
0.66, 28.42534, 0.001241208, NaN, NaN, NaN, 0.03112983, "- N/A -   "
0.72, 29.84071, 0.00132729, NaN, NaN, NaN, 0.03601294, "- N/A -   "
0.78, 31.374, 0.00141614, NaN, NaN, NaN, 0.04089605, "- N/A -   "
0.84, 33.1432, 0.001510553, NaN, NaN, NaN, 0.0445584, "- N/A -   "
0.9, 35.0304, 0.00161607, NaN, NaN, NaN, 0.04089605, "- N/A -   "
0.96, 36.6817, 0.0017077, NaN, NaN, NaN, 0.0445584, "- N/A -   "
1.02, 38.68677, 0.001816, NaN, NaN, NaN, 0.04089605, "- N/A -   "
1.08, 41.04572, 0.00193817, NaN, NaN, NaN, 0.0323506, "- N/A -   "
1.14, 43.0508, 0.00204924, NaN, NaN, NaN, 0.0274675, "- N/A -   "
1.2, 44.93799, 0.00214643, NaN, NaN, NaN, 0.0286883, "- N/A -   "
1.26, 46.7072, 0.00223529, NaN, NaN, NaN, 0.0323506, "- N/A -   "
1.32, 48.3585, 0.00232414, NaN, NaN, NaN, 0.0372337, "- N/A -   "
1.38, 50.2456, 0.00241855, NaN, NaN, NaN, 0.0396753, "- N/A -   "
1.44, 52.36868, 0.00252684, NaN, NaN, NaN, 0.03601294, "- N/A -   "
1.5, 54.13789, 0.00261848, NaN, NaN, NaN, 0.0396753, "- N/A -   "
1.56, 55.7892, 0.00271011, NaN, NaN, NaN, 0.0445584, "- N/A -   "
1.62, 57.91221, 0.00281007, NaN, NaN, NaN, 0.0445584, "- N/A -   "
1.68, 60.27116, 0.00292392, NaN, NaN, NaN, 0.0384545, "- N/A -   "
1.74, 62.5122, 0.00303499, NaN, NaN, NaN, 0.0335714, "- N/A -   "
1.8, 64.3993, 0.00313495, NaN, NaN, NaN, 0.0335714, "- N/A -   "
1.86, 66.2865, 0.00322936, NaN, NaN, NaN, 0.03601294, "- N/A -   "
1.92, 68.29159, 0.00332655, NaN, NaN, NaN, 0.03601294, "- N/A -   "
1.98, 70.41464, 0.00342929, NaN, NaN, NaN, 0.0347922, "- N/A -   "
2.04, 72.5377, 0.00353203, NaN, NaN, NaN, 0.0335714, "- N/A -   "
2.1, 74.5428, 0.00362921, NaN, NaN, NaN, 0.0347922, "- N/A -   "
2.16, 76.19407, 0.003715294, NaN, NaN, NaN, 0.04089605, "- N/A -   "
2.22, 78.31712, 0.003815257, NaN, NaN, NaN, 0.04089605, "- N/A -   "
2.28, 80.55813, 0.00392355, NaN, NaN, NaN, 0.0384545, "- N/A -   "
2.34, 82.68118, 0.00402074, NaN, NaN, NaN, 0.0384545, "- N/A -   "
2.4, 84.80424, 0.004123477, NaN, NaN, NaN, 0.0372337, "- N/A -   "
2.46, 86.92729, 0.00422344, NaN, NaN, NaN, 0.0372337, "- N/A -   "
2.52, 89.16828, 0.00432896, NaN, NaN, NaN, 0.0347922, "- N/A -   "
2.58, 91.40929, 0.00443725, NaN, NaN, NaN, 0.0323506, "- N/A -   "
2.64, 93.53234, 0.00453721, NaN, NaN, NaN, 0.03112983, "- N/A -   "
2.7, 95.7733, 0.004634399, NaN, NaN, NaN, 0.0323506, "- N/A -   "
2.76, 97.8964, 0.004734362, NaN, NaN, NaN, 0.0335714, "- N/A -   "
2.82, 99.9015, 0.004834325, NaN, NaN, NaN, 0.0323506, "- N/A -   "
2.88, 101.789, 0.004920405, NaN, NaN, NaN, 0.0384545, "- N/A -   "
2.94, 103.794, 0.005012037, NaN, NaN, NaN, 0.04211683, "- N/A -   "
3, 105.799, 0.005106447, NaN, NaN, NaN, 0.0445584, "- N/A -   "
3.06, 108.04, 0.005209187, NaN, NaN, NaN, 0.0433376, "- N/A -   "
3.12, 110.517, 0.00532581, NaN, NaN, NaN, 0.0372337, "- N/A -   "
3.18, 112.876, 0.005431327, NaN, NaN, NaN, 0.0335714, "- N/A -   "
3.24, 114.999, 0.00552851, NaN, NaN, NaN, 0.0347922, "- N/A -   "
3.3, 117.122, 0.0056257, NaN, NaN, NaN, 0.03601294, "- N/A -   "
3.36, 119.481, 0.00573677, NaN, NaN, NaN, 0.0323506, "- N/A -   "
3.42, 121.722, 0.005836732, NaN, NaN, NaN, 0.03112983, "- N/A -   "
3.48, 123.7269, 0.005931142, NaN, NaN, NaN, 0.0335714, "- N/A -   "
3.54, 125.614, 0.006019998, NaN, NaN, NaN, 0.0384545, "- N/A -   "
3.6, 127.619, 0.006108854, NaN, NaN, NaN, 0.0433376, "- N/A -   "
3.66, 129.506, 0.00620604, NaN, NaN, NaN, 0.04699994, "- N/A -   "
3.72, 132.219, 0.00631711, NaN, NaN, NaN, 0.04211683, "- N/A -   "
3.78, 134.578, 0.006425404, NaN, NaN, NaN, 0.0384545, "- N/A -   "
3.84, 136.937, 0.006533697, NaN, NaN, NaN, 0.0347922, "- N/A -   "
3.9, 139.296, 0.006639214, NaN, NaN, NaN, 0.03112983, "- N/A -   "
3.96, 141.6549, 0.00674751, NaN, NaN, NaN, 0.0274675, "- N/A -   "
[...]
36.93, 1529.6, 0.0616855, NaN, NaN, NaN, 0.0323506, "- N/A -   "
37.06, 1534.608, 0.0618771, NaN, NaN, NaN, 0.0433376, "- N/A -   "
37.19, 1540.45, 0.06209095, NaN, NaN, NaN, 0.0445584, "- N/A -   "
37.32, 1547.13, 0.0623325, NaN, NaN, NaN, 0.0347922, "- N/A -   "
37.45, 1553.09, 0.0625547, NaN, NaN, NaN, 0.03112983, "- N/A -   "
37.58, 1558.82, 0.0627685, NaN, NaN, NaN, 0.0323506, "- N/A -   "
37.71, 1563.71, 0.0629573, NaN, NaN, NaN, 0.0445584, "- N/A -   "
37.84, 1569.79, 0.06317943, NaN, NaN, NaN, 0.04211683, "- N/A -   "
37.97, 1576.47, 0.06342101, NaN, NaN, NaN, 0.03112983, "- N/A -   "
38.1, 1582.31, 0.06364315, NaN, NaN, NaN, 0.0286883, "- N/A -   "
38.23, 1588.033, 0.06385141, NaN, NaN, NaN, 0.0323506, "- N/A -   "
38.36, 1593.04, 0.064043, NaN, NaN, NaN, 0.0433376, "- N/A -   "
38.49, 1598.77, 0.06425959, NaN, NaN, NaN, 0.0445584, "- N/A -   "
38.62, 1604.97, 0.06449006, NaN, NaN, NaN, 0.0384545, "- N/A -   "
38.75, 1611.53, 0.0647261, NaN, NaN, NaN, 0.0286883, "- N/A -   "
38.88, 1616.77, 0.06492601, NaN, NaN, NaN, 0.03601294, "- N/A -   "
39.01, 1622.5, 0.06513982, NaN, NaN, NaN, 0.0372337, "- N/A -   "
39.14, 1627.86, 0.0653397, NaN, NaN, NaN, 0.0445584, "- N/A -   "
39.27, 1634.66, 0.06558687, NaN, NaN, NaN, 0.03112983, "- N/A -   "
39.4, 1640.27, 0.06579791, NaN, NaN, NaN, 0.0335714, "- N/A -   "
39.53, 1646.228, 0.06602005, NaN, NaN, NaN, 0.03112983, "- N/A -   "
39.66, 1651.83, 0.06622553, NaN, NaN, NaN, 0.03601294, "- N/A -   "
39.79, 1657.2, 0.06643657, NaN, NaN, NaN, 0.0396753, "- N/A -   "
39.92, 1663.04, 0.0666504, NaN, NaN, NaN, 0.04089605, "- N/A -   "
40.05, 1668.89, 0.0668697, NaN, NaN, NaN, 0.0396753, "- N/A -   "
40.18, 1675.09, 0.06710298, NaN, NaN, NaN, 0.0335714, "- N/A -   "
40.31, 1680.69, 0.067314, NaN, NaN, NaN, 0.0347922, "- N/A -   "
40.44, 1686.18, 0.0675195, NaN, NaN, NaN, 0.0396753, "- N/A -   "
40.57, 1691.54, 0.06772775, NaN, NaN, NaN, 0.0445584, "- N/A -   "
40.7, 1698.34, 0.06797489, NaN, NaN, NaN, 0.0299091, "- N/A -   "
40.83, 1703.83, 0.06818314, NaN, NaN, NaN, 0.0335714, "- N/A -   "
40.96, 1709.67, 0.06840806, NaN, NaN, NaN, 0.03112983, "- N/A -   "
41.09, 1714.56, 0.0685997, NaN, NaN, NaN, 0.04089605, "- N/A -   "
41.22, 1720.04, 0.06880791, NaN, NaN, NaN, 0.0445584, "- N/A -   "
41.35, 1726.37, 0.0690439, NaN, NaN, NaN, 0.03601294, "- N/A -   "
41.48, 1732.21, 0.0692633, NaN, NaN, NaN, 0.0347922, "- N/A -   "
41.61, 1737.93, 0.06948544, NaN, NaN, NaN, 0.0335714, "- N/A -   "
41.74, 1742.94, 0.06968259, NaN, NaN, NaN, 0.04089605, "- N/A -   "
41.87, 1748.55, 0.06989917, NaN, NaN, NaN, 0.04089605, "- N/A -   "
42, 1754.51, 0.07012687, NaN, NaN, NaN, 0.03601294, "- N/A -   "
42.13, 1760.71, 0.0703629, NaN, NaN, NaN, 0.0274675, "- N/A -   "
42.26, 1765.957, 0.07056282, NaN, NaN, NaN, 0.0347922, "- N/A -   "
42.39, 1771.32, 0.0707739, NaN, NaN, NaN, 0.0372337, "- N/A -   "
42.52, 1776.09, 0.0709682, NaN, NaN, NaN, 0.04699994, "- N/A -   "
42.65, 1782.533, 0.0712098, NaN, NaN, NaN, 0.03601294, "- N/A -   "
42.78, 1788.14, 0.07142916, NaN, NaN, NaN, 0.0347922, "- N/A -   "
42.91, 1793.62, 0.07164575, NaN, NaN, NaN, 0.0347922, "- N/A -   "
43.04, 1799.35, 0.07186233, NaN, NaN, NaN, 0.0347922, "- N/A -   "
43.17, 1804.59, 0.0720706, NaN, NaN, NaN, 0.0396753, "- N/A -   "
43.3, 1810.2, 0.07228718, NaN, NaN, NaN, 0.0384545, "- N/A -   "
43.43, 1815.92, 0.0725121, NaN, NaN, NaN, 0.03601294, "- N/A -   "
43.56, 1821.65, 0.07273424, NaN, NaN, NaN, 0.0323506, "- N/A -   "
43.69, 1827.13, 0.07294527, NaN, NaN, NaN, 0.0347922, "- N/A -   "
43.77, 1830.59, 0.07308133, NaN, NaN, NaN, 0.0347922, "- N/A -   "

File: Hamel_ForceTest_Bolt5_Test11.csv
Time, Load (lb), Position (in), AxialStrain (in), TransverseStrain (in), Auxiliary (), Control Out (V), Stress (psi)
0.0, 14.3896, 0.0, NaN, NaN, NaN, -0.007935055, "- N/A -   "
0.01, 14.2716, 0.0, NaN, NaN, NaN, -6.103888E-4, "- N/A -   "
0.02, 14.2716, 0.0, NaN, NaN, NaN, 0.0140389, "- N/A -   "
0.03, 14.3896, 2.776752E-6, NaN, NaN, NaN, 0.0323506, "- N/A -   "
0.04, 14.5075, 1.1107e-05, NaN, NaN, NaN, 0.0494415, "- N/A -   "
0.05, 14.7434, 2.2214e-05, NaN, NaN, NaN, 0.06287005, "- N/A -   "
0.06, 14.9793, 3.88745e-05, NaN, NaN, NaN, 0.0750778, "- N/A -   "
0.07, 15.4511, 6.108854E-5, NaN, NaN, NaN, 0.084844, "- N/A -   "
0.08, 15.9229, 8.885606E-5, NaN, NaN, NaN, 0.09338949, "- N/A -   "
0.09, 16.5126, 0.000116624, NaN, NaN, NaN, 0.09949338, "- N/A -   "
0.1, 17.2203, 1.499446E-4, NaN, NaN, NaN, 0.09949338, "- N/A -   "
0.11, 17.8101, 0.000180489, NaN, NaN, NaN, 0.09216871, "- N/A -   "
0.12, 18.2819, 2.138099E-4, NaN, NaN, NaN, 0.084844, "- N/A -   "
0.13, 18.7536, 0.000244354, NaN, NaN, NaN, 0.0799609, "- N/A -   "
0.14, 19.3434, 0.000269345, NaN, NaN, NaN, 0.0750778, "- N/A -   "
0.15, 19.6972, 0.000294336, NaN, NaN, NaN, 0.07263627, "- N/A -   "
0.16, 20.05107, 3.165497E-4, NaN, NaN, NaN, 0.0701947, "- N/A -   "
0.17, 20.4049, 0.000335987, NaN, NaN, NaN, 0.06775316, "- N/A -   "
0.18, 20.8767, 0.000358201, NaN, NaN, NaN, 0.06653238, "- N/A -   "
0.19, 21.1126, 0.000377638, NaN, NaN, NaN, 0.0653116, "- N/A -   "
0.2, 21.46644, 0.000394299, NaN, NaN, NaN, 0.0640908, "- N/A -   "
0.21, 21.7023, 0.000410959, NaN, NaN, NaN, 0.0640908, "- N/A -   "
0.22, 22.0562, 0.000430397, NaN, NaN, NaN, 0.06287005, "- N/A -   "
0.23, 22.41, 0.000449834, NaN, NaN, NaN, 0.06287005, "- N/A -   "
0.24, 22.6459, 4.664943E-4, NaN, NaN, NaN, 0.06164927, "- N/A -   "
0.25, 22.88181, 0.000485932, NaN, NaN, NaN, 0.06164927, "- N/A -   "
0.26, 23.2357, 0.000502592, NaN, NaN, NaN, 0.06164927, "- N/A -   "
0.27, 23.5895, 5.192526E-4, NaN, NaN, NaN, 0.0604285, "- N/A -   "
0.28, 23.82539, 5.414666E-4, NaN, NaN, NaN, 0.0592077, "- N/A -   "
0.29, 24.1792, 5.581271E-4, NaN, NaN, NaN, 0.0579869, "- N/A -   "
0.3, 24.5331, 0.000580341, NaN, NaN, NaN, 0.0555454, "- N/A -   "
0.31, 25.0049, 5.997784E-4, NaN, NaN, NaN, 0.0543246, "- N/A -   "
0.32, 25.2408, 0.000624769, NaN, NaN, NaN, 0.05188305, "- N/A -   "
0.33, 25.7125, 6.442064E-4, NaN, NaN, NaN, 0.0494415, "- N/A -   "
0.34, 25.9484, 0.00066642, NaN, NaN, NaN, 0.04699994, "- N/A -   "
0.35, 26.3023, 6.858577E-4, NaN, NaN, NaN, 0.04577916, "- N/A -   "
0.36, 26.6561, 0.000705295, NaN, NaN, NaN, 0.0445584, "- N/A -   "
0.37, 26.892, 0.000724732, NaN, NaN, NaN, 0.0433376, "- N/A -   "
0.38, 27.2459, 0.000744169, NaN, NaN, NaN, 0.04211683, "- N/A -   "
0.39, 27.5997, 0.000763607, NaN, NaN, NaN, 0.04211683, "- N/A -   "
0.4, 27.8356, 0.000783044, NaN, NaN, NaN, 0.0396753, "- N/A -   "
0.41, 28.3074, 7.997045E-4, NaN, NaN, NaN, 0.0396753, "- N/A -   "
0.42, 28.54329, 8.191418E-4, NaN, NaN, NaN, 0.0396753, "- N/A -   "
0.43, 28.7792, 8.358023E-4, NaN, NaN, NaN, 0.0384545, "- N/A -   "
0.44, 29.0151, 8.524628E-4, NaN, NaN, NaN, 0.0396753, "- N/A -   "
0.45, 29.251, 8.663466E-4, NaN, NaN, NaN, 0.0396753, "- N/A -   "
0.46, 29.6048, 8.857838E-4, NaN, NaN, NaN, 0.0396753, "- N/A -   "
0.47, 29.84071, 0.000902444, NaN, NaN, NaN, 0.0384545, "- N/A -   "
0.48, 30.0766, 9.218816E-4, NaN, NaN, NaN, 0.0384545, "- N/A -   "
0.49, 30.5484, 0.000941319, NaN, NaN, NaN, 0.03601294, "- N/A -   "
0.5, 30.78429, 0.000957979, NaN, NaN, NaN, 0.03601294, "- N/A -   "
0.51, 31.0202, 9.774166E-4, NaN, NaN, NaN, 0.0347922, "- N/A -   "
0.52, 31.374, 9.940772E-4, NaN, NaN, NaN, 0.0347922, "- N/A -   "
0.53, 31.72787, 0.00101351, NaN, NaN, NaN, 0.0335714, "- N/A -   "
0.59, 33.49708, 0.001119031, NaN, NaN, NaN, 0.03112983, "- N/A -   "
0.65, 35.1483, 0.001218994, NaN, NaN, NaN, 0.03112983, "- N/A -   "
0.71, 36.6817, 0.00131063, NaN, NaN, NaN, 0.03601294, "- N/A -   "
0.77, 38.097, 0.00139671, NaN, NaN, NaN, 0.04089605, "- N/A -   "
0.83, 39.6304, 0.00148834, NaN, NaN, NaN, 0.0445584, "- N/A -   "
0.89, 41.51751, 0.00159386, NaN, NaN, NaN, 0.0433376, "- N/A -   "
0.95, 43.1688, 0.00169382, NaN, NaN, NaN, 0.04211683, "- N/A -   "
1.01, 45.05593, 0.00179656, NaN, NaN, NaN, 0.04089605, "- N/A -   "
1.07, 46.9431, 0.00191041, NaN, NaN, NaN, 0.03601294, "- N/A -   "
1.13, 49.1841, 0.002024252, NaN, NaN, NaN, 0.0286883, "- N/A -   "
1.19, 50.9533, 0.002126992, NaN, NaN, NaN, 0.0286883, "- N/A -   "
1.25, 52.6046, 0.0022214, NaN, NaN, NaN, 0.0299091, "- N/A -   "
1.31, 54.2558, 0.00231026, NaN, NaN, NaN, 0.0347922, "- N/A -   "
1.37, 56.02505, 0.002404667, NaN, NaN, NaN, 0.0372337, "- N/A -   "
1.43, 57.79426, 0.00250741, NaN, NaN, NaN, 0.03601294, "- N/A -   "
1.49, 59.68142, 0.00260182, NaN, NaN, NaN, 0.0384545, "- N/A -   "
1.55, 61.3327, 0.00269067, NaN, NaN, NaN, 0.0433376, "- N/A -   "
1.61, 63.2198, 0.00278786, NaN, NaN, NaN, 0.04577916, "- N/A -   "
1.67, 65.107, 0.0028906, NaN, NaN, NaN, 0.0433376, "- N/A -   "
1.73, 67.5839, 0.003012776, NaN, NaN, NaN, 0.0335714, "- N/A -   "
1.79, 69.707, 0.003121069, NaN, NaN, NaN, 0.0299091, "- N/A -   "
1.85, 71.3582, 0.003209925, NaN, NaN, NaN, 0.03601294, "- N/A -   "
1.91, 73.36333, 0.00330711, NaN, NaN, NaN, 0.0372337, "- N/A -   "
1.97, 75.36844, 0.003409851, NaN, NaN, NaN, 0.0347922, "- N/A -   "
2.03, 77.6094, 0.003515368, NaN, NaN, NaN, 0.0323506, "- N/A -   "
2.09, 79.61454, 0.00360978, NaN, NaN, NaN, 0.0347922, "- N/A -   "
2.15, 81.5017, 0.00370419, NaN, NaN, NaN, 0.0384545, "- N/A -   "
2.21, 83.38886, 0.00379027, NaN, NaN, NaN, 0.0433376, "- N/A -   "
2.27, 85.62987, 0.00390134, NaN, NaN, NaN, 0.0384545, "- N/A -   "
2.33, 87.75292, 0.0040013, NaN, NaN, NaN, 0.0384545, "- N/A -   "
2.39, 90.11186, 0.00410959, NaN, NaN, NaN, 0.0347922, "- N/A -   "
2.45, 92.23492, 0.00420956, NaN, NaN, NaN, 0.03601294, "- N/A -   "
2.51, 94.47592, 0.004312296, NaN, NaN, NaN, 0.0335714, "- N/A -   "
2.57, 96.95282, 0.00442059, NaN, NaN, NaN, 0.0299091, "- N/A -   "
2.63, 99.0759, 0.004520552, NaN, NaN, NaN, 0.0299091, "- N/A -   "
2.69, 101.081, 0.004612185, NaN, NaN, NaN, 0.0335714, "- N/A -   "
2.75, 103.322, 0.004712148, NaN, NaN, NaN, 0.0347922, "- N/A -   "
2.81, 105.445, 0.004814888, NaN, NaN, NaN, 0.0335714, "- N/A -   "
2.87, 107.3322, 0.00490097, NaN, NaN, NaN, 0.0384545, "- N/A -   "
2.93, 109.5732, 0.004998153, NaN, NaN, NaN, 0.04089605, "- N/A -   "
2.99, 111.696, 0.00508979, NaN, NaN, NaN, 0.0433376, "- N/A -   "
3.05, 113.819, 0.0051842, NaN, NaN, NaN, 0.04699994, "- N/A -   "
3.11, 116.414, 0.00529804, NaN, NaN, NaN, 0.0396753, "- N/A -   "
3.17, 119.127, 0.00541189, NaN, NaN, NaN, 0.0347922, "- N/A -   "
3.23, 121.368, 0.00550908, NaN, NaN, NaN, 0.0347922, "- N/A -   "
3.29, 123.7269, 0.00560904, NaN, NaN, NaN, 0.0347922, "- N/A -   "
3.35, 126.204, 0.00572011, NaN, NaN, NaN, 0.0299091, "- N/A -   "
3.41, 128.799, 0.005825625, NaN, NaN, NaN, 0.0274675, "- N/A -   "
3.47, 130.804, 0.0059117, NaN, NaN, NaN, 0.0335714, "- N/A -   "
3.53, 132.6909, 0.00600056, NaN, NaN, NaN, 0.0384545, "- N/A -   "
3.59, 134.696, 0.00608664, NaN, NaN, NaN, 0.0445584, "- N/A -   "
3.65, 137.173, 0.00618383, NaN, NaN, NaN, 0.04699994, "- N/A -   "
3.71, 139.65, 0.006289343, NaN, NaN, NaN, 0.04577916, "- N/A -   "
[...]
47.53, -1.29742, 0.07940955, NaN, NaN, NaN, 0.0335714, "- N/A -   "
47.55, -1.29742, 0.0794401, NaN, NaN, NaN, 0.0347922, "- N/A -   "
47.57, -1.29742, 0.0794762, NaN, NaN, NaN, 0.0347922, "- N/A -   "
47.59, -1.17947, 0.07950952, NaN, NaN, NaN, 0.0335714, "- N/A -   "
47.61, -1.17947, 0.07954284, NaN, NaN, NaN, 0.0347922, "- N/A -   "
47.63, -1.29742, 0.0795762, NaN, NaN, NaN, 0.0335714, "- N/A -   "
47.65, -1.29742, 0.07961226, NaN, NaN, NaN, 0.0323506, "- N/A -   "
47.67, -1.29742, 0.07964558, NaN, NaN, NaN, 0.0323506, "- N/A -   "
47.69, -1.29742, 0.07968446, NaN, NaN, NaN, 0.0274675, "- N/A -   "
47.71, -1.17947, 0.07971222, NaN, NaN, NaN, 0.0213636, "- N/A -   "
47.73, -1.29742, 0.07973721, NaN, NaN, NaN, 0.0250259, "- N/A -   "
47.75, -1.29742, 0.07976498, NaN, NaN, NaN, 0.0274675, "- N/A -   "
47.77, -1.17947, 0.0797955, NaN, NaN, NaN, 0.0299091, "- N/A -   "
47.79, -1.17947, 0.07982329, NaN, NaN, NaN, 0.03112983, "- N/A -   "
47.81, -1.17947, 0.07985661, NaN, NaN, NaN, 0.0323506, "- N/A -   "
47.83, -1.17947, 0.07988716, NaN, NaN, NaN, 0.0323506, "- N/A -   "
47.85, -1.17947, 0.07991492, NaN, NaN, NaN, 0.0347922, "- N/A -   "
47.87, -1.17947, 0.07994269, NaN, NaN, NaN, 0.0372337, "- N/A -   "
47.89, -1.17947, 0.0799705, NaN, NaN, NaN, 0.0396753, "- N/A -   "
47.91, -1.17947, 0.0799982, NaN, NaN, NaN, 0.04211683, "- N/A -   "
47.93, -1.17947, 0.08002877, NaN, NaN, NaN, 0.0433376, "- N/A -   "
47.95, -1.17947, 0.08006209, NaN, NaN, NaN, 0.0445584, "- N/A -   "
47.97, -1.17947, 0.08009263, NaN, NaN, NaN, 0.0445584, "- N/A -   "
47.99, -1.29742, 0.08012595, NaN, NaN, NaN, 0.04577916, "- N/A -   "
48.01, -1.29742, 0.08015928, NaN, NaN, NaN, 0.04577916, "- N/A -   "
48.03, -1.17947, 0.0801954, NaN, NaN, NaN, 0.0445584, "- N/A -   "
48.05, -1.17947, 0.08023702, NaN, NaN, NaN, 0.04089605, "- N/A -   "
48.07, -1.17947, 0.08027312, NaN, NaN, NaN, 0.0396753, "- N/A -   "
48.09, -1.17947, 0.08030922, NaN, NaN, NaN, 0.0372337, "- N/A -   "
48.11, -1.17947, 0.08034532, NaN, NaN, NaN, 0.0372337, "- N/A -   "
48.13, -1.17947, 0.08037864, NaN, NaN, NaN, 0.03601294, "- N/A -   "
48.15, -1.17947, 0.0804147, NaN, NaN, NaN, 0.03601294, "- N/A -   "
48.17, -1.17947, 0.08045083, NaN, NaN, NaN, 0.0335714, "- N/A -   "
48.19, -1.17947, 0.08048415, NaN, NaN, NaN, 0.0335714, "- N/A -   "
48.21, -1.17947, 0.08051748, NaN, NaN, NaN, 0.0335714, "- N/A -   "
48.23, -1.17947, 0.08055358, NaN, NaN, NaN, 0.0323506, "- N/A -   "
48.25, -1.17947, 0.0805869, NaN, NaN, NaN, 0.0323506, "- N/A -   "
48.27, -1.17947, 0.08062577, NaN, NaN, NaN, 0.03112983, "- N/A -   "
48.29, -1.06153, 0.08065909, NaN, NaN, NaN, 0.0299091, "- N/A -   "
48.31, -1.17947, 0.08069241, NaN, NaN, NaN, 0.0299091, "- N/A -   "
48.33, -1.17947, 0.08072573, NaN, NaN, NaN, 0.03112983, "- N/A -   "
48.35, -1.17947, 0.0807563, NaN, NaN, NaN, 0.03112983, "- N/A -   "
48.37, -1.17947, 0.0807896, NaN, NaN, NaN, 0.03112983, "- N/A -   "
48.39, -1.06153, 0.08082847, NaN, NaN, NaN, 0.0299091, "- N/A -   "
48.41, -1.17947, 0.0808618, NaN, NaN, NaN, 0.0299091, "- N/A -   "
48.43, -1.17947, 0.08088957, NaN, NaN, NaN, 0.03112983, "- N/A -   "
48.45, -1.17947, 0.08092011, NaN, NaN, NaN, 0.0323506, "- N/A -   "
48.47, -1.17947, 0.08095065, NaN, NaN, NaN, 0.0335714, "- N/A -   "
48.49, -1.17947, 0.0809812, NaN, NaN, NaN, 0.0347922, "- N/A -   "
48.51, -1.17947, 0.081009, NaN, NaN, NaN, 0.0372337, "- N/A -   "
48.53, -1.06153, 0.08103951, NaN, NaN, NaN, 0.0396753, "- N/A -   "
48.55, -1.06153, 0.0810645, NaN, NaN, NaN, 0.04211683, "- N/A -   "
48.563, -1.06153, 0.08108393, NaN, NaN, NaN, 0.0445584, "- N/A -   "