Folder: DigitalTwins-Machine-Learning/2_Tensile_Data (part 19)

File: Hamel_ForceTest_Bolt6_Test3.csv
Time, Load (lb), Position (in), AxialStrain (in), TransverseStrain (in), Auxiliary (), Control Out (V), Stress (psi)
0.0, 1.29742, 0.0, NaN, NaN, NaN, 0.104376, "- N/A -   "
0.01, 1.65126, 3.054427E-5, NaN, NaN, NaN, 0.103156, "- N/A -   "
0.02, 2.12305, 6.108854E-5, NaN, NaN, NaN, 0.09705182, "- N/A -   "
0.03, 2.476897, 8.885606E-5, NaN, NaN, NaN, 0.09094793, "- N/A -   "
0.04, 2.83074, 0.0001194, NaN, NaN, NaN, 0.08606482, "- N/A -   "
0.05, 3.30253, 0.000147168, NaN, NaN, NaN, 0.0799609, "- N/A -   "
0.06, 3.65637, 0.000172159, NaN, NaN, NaN, 0.0762986, "- N/A -   "
0.07, 4.010214, 0.000202703, NaN, NaN, NaN, 0.07141549, "- N/A -   "
0.08, 4.36406, 0.000224917, NaN, NaN, NaN, 0.06775316, "- N/A -   "
0.09, 4.717899, 0.000249908, NaN, NaN, NaN, 0.0640908, "- N/A -   "
0.1, 5.071741, 2.776752E-4, NaN, NaN, NaN, 0.0604285, "- N/A -   "
0.11, 5.54353, 0.000302666, NaN, NaN, NaN, 0.05676616, "- N/A -   "
0.12, 5.779426, 0.00032488, NaN, NaN, NaN, 0.0531038, "- N/A -   "
0.13, 6.251216, 0.000347094, NaN, NaN, NaN, 0.05066227, "- N/A -   "
0.14, 6.487111, 0.000366531, NaN, NaN, NaN, 0.0494415, "- N/A -   "
0.15, 6.723006, 0.000388745, NaN, NaN, NaN, 0.0482207, "- N/A -   "
0.16, 6.9589, 4.081825E-4, NaN, NaN, NaN, 0.04577916, "- N/A -   "
0.17, 7.312743, 0.000430397, NaN, NaN, NaN, 0.0445584, "- N/A -   "
0.18, 7.666586, 0.000449834, NaN, NaN, NaN, 0.04211683, "- N/A -   "
0.19, 8.020428, 4.720478E-4, NaN, NaN, NaN, 0.04089605, "- N/A -   "
0.2, 8.256323, 0.000491485, NaN, NaN, NaN, 0.0384545, "- N/A -   "
0.21, 8.610166, 5.136991E-4, NaN, NaN, NaN, 0.0372337, "- N/A -   "
0.22, 8.964007, 0.000533136, NaN, NaN, NaN, 0.03601294, "- N/A -   "
0.23, 9.199903, 0.000549797, NaN, NaN, NaN, 0.0347922, "- N/A -   "
0.24, 9.435798, 5.664574E-4, NaN, NaN, NaN, 0.0347922, "- N/A -   "
0.25, 9.78964, 5.858946E-4, NaN, NaN, NaN, 0.0347922, "- N/A -   "
0.26, 10.1435, 0.000602555, NaN, NaN, NaN, 0.0335714, "- N/A -   "
0.27, 10.26143, 6.219924E-4, NaN, NaN, NaN, 0.0335714, "- N/A -   "
0.28, 10.6153, 0.000638653, NaN, NaN, NaN, 0.0323506, "- N/A -   "
0.29, 10.8512, 0.000655313, NaN, NaN, NaN, 0.0323506, "- N/A -   "
0.3, 11.205, 6.747507E-4, NaN, NaN, NaN, 0.0323506, "- N/A -   "
0.31, 11.4409, 6.914112E-4, NaN, NaN, NaN, 0.03112983, "- N/A -   "
0.32, 11.6768, 7.080717E-4, NaN, NaN, NaN, 0.03112983, "- N/A -   "
0.33, 12.0306, 0.000724732, NaN, NaN, NaN, 0.03112983, "- N/A -   "
0.34, 12.2665, 7.413927E-4, NaN, NaN, NaN, 0.03112983, "- N/A -   "
0.35, 12.5024, 0.000758053, NaN, NaN, NaN, 0.0323506, "- N/A -   "
0.36, 12.6204, 7.71937E-4, NaN, NaN, NaN, 0.0323506, "- N/A -   "
0.37, 12.9742, 0.000785821, NaN, NaN, NaN, 0.0347922, "- N/A -   "
0.38, 13.09217, 7.997045E-4, NaN, NaN, NaN, 0.0347922, "- N/A -   "
0.39, 13.446, 8.16365E-4, NaN, NaN, NaN, 0.0347922, "- N/A -   "
0.4, 13.564, 8.302488E-4, NaN, NaN, NaN, 0.03601294, "- N/A -   "
0.41, 13.9178, 8.469093E-4, NaN, NaN, NaN, 0.0372337, "- N/A -   "
0.42, 14.1537, 0.000860793, NaN, NaN, NaN, 0.0372337, "- N/A -   "
0.43, 14.3896, 8.746768E-4, NaN, NaN, NaN, 0.0384545, "- N/A -   "
0.44, 14.5075, 0.000891337, NaN, NaN, NaN, 0.0384545, "- N/A -   "
0.45, 14.8614, 9.052211E-4, NaN, NaN, NaN, 0.0396753, "- N/A -   "
0.46, 15.0973, 9.218816E-4, NaN, NaN, NaN, 0.04089605, "- N/A -   "
0.47, 15.2152, 0.000935765, NaN, NaN, NaN, 0.04211683, "- N/A -   "
0.48, 15.5691, 0.000949649, NaN, NaN, NaN, 0.0433376, "- N/A -   "
0.49, 15.687, 9.635329E-4, NaN, NaN, NaN, 0.0445584, "- N/A -   "
0.5, 15.9229, 9.774166E-4, NaN, NaN, NaN, 0.0445584, "- N/A -   "
0.51, 16.27675, 9.940772E-4, NaN, NaN, NaN, 0.0445584, "- N/A -   "
0.55, 17.3383, 0.00106072, NaN, NaN, NaN, 0.0445584, "- N/A -   "
0.59, 18.3998, 0.00112736, NaN, NaN, NaN, 0.04577916, "- N/A -   "
0.63, 19.4613, 0.001194, NaN, NaN, NaN, 0.0445584, "- N/A -   "
0.67, 20.7588, 0.00126342, NaN, NaN, NaN, 0.0433376, "- N/A -   "
0.71, 21.8203, 0.00133284, NaN, NaN, NaN, 0.04211683, "- N/A -   "
0.75, 23.1177, 0.00141059, NaN, NaN, NaN, 0.0372337, "- N/A -   "
0.79, 24.769, 0.00149112, NaN, NaN, NaN, 0.03112983, "- N/A -   "
0.83, 25.9484, 0.00156609, NaN, NaN, NaN, 0.0286883, "- N/A -   "
0.87, 27.1279, 0.00163273, NaN, NaN, NaN, 0.0274675, "- N/A -   "
0.91, 28.3074, 0.00169382, NaN, NaN, NaN, 0.0299091, "- N/A -   "
0.95, 29.4869, 0.00175491, NaN, NaN, NaN, 0.0323506, "- N/A -   "
0.99, 30.78429, 0.00181877, NaN, NaN, NaN, 0.0335714, "- N/A -   "
1.03, 31.8458, 0.001879861, NaN, NaN, NaN, 0.0372337, "- N/A -   "
1.07, 33.1432, 0.0019465, NaN, NaN, NaN, 0.0372337, "- N/A -   "
1.11, 34.55861, 0.00201037, NaN, NaN, NaN, 0.0372337, "- N/A -   "
1.15, 35.7381, 0.00207701, NaN, NaN, NaN, 0.0372337, "- N/A -   "
1.19, 36.9176, 0.00214088, NaN, NaN, NaN, 0.0396753, "- N/A -   "
1.23, 38.097, 0.00219919, NaN, NaN, NaN, 0.04211683, "- N/A -   "
1.27, 39.2765, 0.002260276, NaN, NaN, NaN, 0.0445584, "- N/A -   "
1.31, 40.69188, 0.002326918, NaN, NaN, NaN, 0.04577916, "- N/A -   "
1.35, 42.2252, 0.00240467, NaN, NaN, NaN, 0.0396753, "- N/A -   "
1.39, 43.75851, 0.00247964, NaN, NaN, NaN, 0.03601294, "- N/A -   "
1.43, 45.29183, 0.00255461, NaN, NaN, NaN, 0.0323506, "- N/A -   "
1.47, 46.7072, 0.002629584, NaN, NaN, NaN, 0.0299091, "- N/A -   "
1.51, 48.00462, 0.0026879, NaN, NaN, NaN, 0.0323506, "- N/A -   "
1.55, 49.30204, 0.00274898, NaN, NaN, NaN, 0.0347922, "- N/A -   "
1.59, 50.4815, 0.00281285, NaN, NaN, NaN, 0.03601294, "- N/A -   "
1.63, 52.01483, 0.00288227, NaN, NaN, NaN, 0.03601294, "- N/A -   "
1.67, 53.4302, 0.002951687, NaN, NaN, NaN, 0.0335714, "- N/A -   "
1.71, 54.8456, 0.003021106, NaN, NaN, NaN, 0.0323506, "- N/A -   "
1.75, 56.02505, 0.00308219, NaN, NaN, NaN, 0.0347922, "- N/A -   "
1.79, 57.44042, 0.00314606, NaN, NaN, NaN, 0.03601294, "- N/A -   "
1.83, 58.6199, 0.00320437, NaN, NaN, NaN, 0.0396753, "- N/A -   "
1.87, 60.0353, 0.00326546, NaN, NaN, NaN, 0.04211683, "- N/A -   "
1.91, 61.3327, 0.00333488, NaN, NaN, NaN, 0.04089605, "- N/A -   "
1.95, 62.866, 0.003404298, NaN, NaN, NaN, 0.0396753, "- N/A -   "
1.99, 64.28137, 0.00347094, NaN, NaN, NaN, 0.0396753, "- N/A -   "
2.03, 65.81469, 0.00354314, NaN, NaN, NaN, 0.0384545, "- N/A -   "
2.07, 67.23006, 0.00361255, NaN, NaN, NaN, 0.0372337, "- N/A -   "
2.11, 68.52748, 0.00367642, NaN, NaN, NaN, 0.0372337, "- N/A -   "
2.15, 70.0608, 0.00374306, NaN, NaN, NaN, 0.0384545, "- N/A -   "
2.19, 71.3582, 0.0038097, NaN, NaN, NaN, 0.0384545, "- N/A -   "
2.23, 73.12743, 0.00387912, NaN, NaN, NaN, 0.03601294, "- N/A -   "
2.27, 74.66075, 0.00395687, NaN, NaN, NaN, 0.0323506, "- N/A -   "
2.31, 76.19407, 0.00402351, NaN, NaN, NaN, 0.03112983, "- N/A -   "
2.35, 77.37354, 0.00409016, NaN, NaN, NaN, 0.0323506, "- N/A -   "
2.39, 78.90686, 0.004154021, NaN, NaN, NaN, 0.0323506, "- N/A -   "
2.43, 80.0863, 0.00421511, NaN, NaN, NaN, 0.0347922, "- N/A -   "
2.47, 81.5017, 0.00428175, NaN, NaN, NaN, 0.0347922, "- N/A -   "
2.51, 83.03502, 0.004345617, NaN, NaN, NaN, 0.03601294, "- N/A -   "
2.55, 84.45039, 0.004412259, NaN, NaN, NaN, 0.0372337, "- N/A -   "
2.59, 85.86576, 0.004476124, NaN, NaN, NaN, 0.0372337, "- N/A -   "
2.63, 87.28113, 0.004539989, NaN, NaN, NaN, 0.0384545, "- N/A -   "
2.67, 88.4606, 0.004598301, NaN, NaN, NaN, 0.04211683, "- N/A -   "
2.71, 89.87598, 0.00465939, NaN, NaN, NaN, 0.0445584, "- N/A -   "
[...]
18.17, 637.103, 0.0304499, NaN, NaN, NaN, 0.0347922, "- N/A -   "
18.29, 641.598, 0.0306276, NaN, NaN, NaN, 0.0445584, "- N/A -   "
18.41, 646.9208, 0.0308386, NaN, NaN, NaN, 0.0396753, "- N/A -   "
18.53, 652.48, 0.0310607, NaN, NaN, NaN, 0.0299091, "- N/A -   "
18.65, 657.093, 0.031244, NaN, NaN, NaN, 0.0372337, "- N/A -   "
18.77, 662.2973, 0.031455, NaN, NaN, NaN, 0.0323506, "- N/A -   "
18.89, 666.6737, 0.0316355, NaN, NaN, NaN, 0.04089605, "- N/A -   "
19.01, 671.878, 0.03183824, NaN, NaN, NaN, 0.0396753, "- N/A -   "
19.13, 677.319, 0.032052, NaN, NaN, NaN, 0.0335714, "- N/A -   "
19.25, 682.1685, 0.0322492, NaN, NaN, NaN, 0.03601294, "- N/A -   "
19.37, 687.373, 0.0324519, NaN, NaN, NaN, 0.0335714, "- N/A -   "
19.49, 692.4589, 0.0326546, NaN, NaN, NaN, 0.0335714, "- N/A -   "
19.61, 697.3084, 0.0328462, NaN, NaN, NaN, 0.03601294, "- N/A -   "
19.73, 701.8031, 0.0330267, NaN, NaN, NaN, 0.0445584, "- N/A -   "
19.85, 707.3623, 0.0332405, NaN, NaN, NaN, 0.0384545, "- N/A -   "
19.97, 712.8032, 0.03345153, NaN, NaN, NaN, 0.0335714, "- N/A -   "
20.09, 718.126, 0.03365979, NaN, NaN, NaN, 0.03112983, "- N/A -   "
20.21, 722.975, 0.03385416, NaN, NaN, NaN, 0.0323506, "- N/A -   "
20.33, 727.115, 0.0340235, NaN, NaN, NaN, 0.04577916, "- N/A -   "
20.45, 732.6744, 0.0342346, NaN, NaN, NaN, 0.04089605, "- N/A -   "
20.57, 737.997, 0.0344456, NaN, NaN, NaN, 0.03601294, "- N/A -   "
20.69, 743.7928, 0.0346705, NaN, NaN, NaN, 0.0262467, "- N/A -   "
20.81, 748.761, 0.0348649, NaN, NaN, NaN, 0.0274675, "- N/A -   "
20.93, 753.137, 0.0350371, NaN, NaN, NaN, 0.0396753, "- N/A -   "
21.05, 758.1048, 0.03523143, NaN, NaN, NaN, 0.04211683, "- N/A -   "
21.17, 763.191, 0.0354314, NaN, NaN, NaN, 0.04211683, "- N/A -   "
21.29, 769.2232, 0.03565905, NaN, NaN, NaN, 0.0299091, "- N/A -   "
21.41, 774.191, 0.0358562, NaN, NaN, NaN, 0.0323506, "- N/A -   "
21.53, 779.159, 0.036045, NaN, NaN, NaN, 0.0372337, "- N/A -   "
21.65, 784.1266, 0.0362338, NaN, NaN, NaN, 0.04211683, "- N/A -   "
21.77, 789.213, 0.03642821, NaN, NaN, NaN, 0.0445584, "- N/A -   "
21.89, 795.1267, 0.03665868, NaN, NaN, NaN, 0.03112983, "- N/A -   "
22.01, 799.9762, 0.0368503, NaN, NaN, NaN, 0.0347922, "- N/A -   "
22.13, 805.4171, 0.0370585, NaN, NaN, NaN, 0.03112983, "- N/A -   "
22.25, 810.385, 0.0372474, NaN, NaN, NaN, 0.03601294, "- N/A -   "
22.37, 815.234, 0.0374389, NaN, NaN, NaN, 0.04089605, "- N/A -   "
22.49, 820.557, 0.0376417, NaN, NaN, NaN, 0.0384545, "- N/A -   "
22.61, 825.8797, 0.0378444, NaN, NaN, NaN, 0.0372337, "- N/A -   "
22.73, 831.3206, 0.0380526, NaN, NaN, NaN, 0.0335714, "- N/A -   "
22.85, 836.288, 0.03824698, NaN, NaN, NaN, 0.03601294, "- N/A -   "
22.97, 841.3745, 0.0384497, NaN, NaN, NaN, 0.0347922, "- N/A -   "
23.09, 846.224, 0.0386357, NaN, NaN, NaN, 0.04089605, "- N/A -   "
23.21, 851.5467, 0.0388357, NaN, NaN, NaN, 0.04089605, "- N/A -   "
23.33, 857.2241, 0.039055, NaN, NaN, NaN, 0.0323506, "- N/A -   "
23.45, 862.31, 0.03925494, NaN, NaN, NaN, 0.0323506, "- N/A -   "
23.57, 867.6329, 0.0394549, NaN, NaN, NaN, 0.0323506, "- N/A -   "
23.69, 872.3641, 0.03964091, NaN, NaN, NaN, 0.0384545, "- N/A -   "
23.81, 876.977, 0.039827, NaN, NaN, NaN, 0.0445584, "- N/A -   "
23.93, 882.7728, 0.04004076, NaN, NaN, NaN, 0.0384545, "- N/A -   "
24.05, 887.9772, 0.0402435, NaN, NaN, NaN, 0.0372337, "- N/A -   "
24.17, 893.773, 0.0404628, NaN, NaN, NaN, 0.0286883, "- N/A -   "
24.29, 898.504, 0.04064887, NaN, NaN, NaN, 0.0347922, "- N/A -   "
24.41, 903.117, 0.0408266, NaN, NaN, NaN, 0.04577916, "- N/A -   "
24.451, 904.8913, 0.040896, NaN, NaN, NaN, 0.0445584, "- N/A -   "

File: Hamel_ForceTest_Bolt6_Test4.csv
Time, Load (lb), Position (in), AxialStrain (in), TransverseStrain (in), Auxiliary (), Control Out (V), Stress (psi)
0.0, 1.17947, 0.0, NaN, NaN, NaN, 0.09705182, "- N/A -   "
0.01, 1.41537, 3.054427E-5, NaN, NaN, NaN, 0.100714, "- N/A -   "
0.02, 1.88716, 6.386529E-5, NaN, NaN, NaN, 0.09461027, "- N/A -   "
0.03, 2.35895, 9.440956E-5, NaN, NaN, NaN, 0.0872856, "- N/A -   "
0.04, 2.712792, 0.000122177, NaN, NaN, NaN, 0.08362327, "- N/A -   "
0.05, 3.06663, 0.000147168, NaN, NaN, NaN, 0.07874016, "- N/A -   "
0.06, 3.30253, 0.000169382, NaN, NaN, NaN, 0.0762986, "- N/A -   "
0.07, 3.53842, 0.000194373, NaN, NaN, NaN, 0.07263627, "- N/A -   "
0.08, 4.010214, 0.000216587, NaN, NaN, NaN, 0.07141549, "- N/A -   "
0.09, 4.12816, 0.000233247, NaN, NaN, NaN, 0.0701947, "- N/A -   "
0.1, 4.36406, 0.000255461, NaN, NaN, NaN, 0.0689739, "- N/A -   "
0.11, 4.717899, 0.000274898, NaN, NaN, NaN, 0.06653238, "- N/A -   "
0.12, 4.953794, 0.000294336, NaN, NaN, NaN, 0.0653116, "- N/A -   "
0.13, 5.071741, 0.000313773, NaN, NaN, NaN, 0.0640908, "- N/A -   "
0.14, 5.307636, 0.00033321, NaN, NaN, NaN, 0.0640908, "- N/A -   "
0.15, 5.66148, 0.000352647, NaN, NaN, NaN, 0.06287005, "- N/A -   "
0.16, 5.779426, 0.000372085, NaN, NaN, NaN, 0.06164927, "- N/A -   "
0.17, 6.13327, 0.000391522, NaN, NaN, NaN, 0.0604285, "- N/A -   "
0.18, 6.369163, 0.000410959, NaN, NaN, NaN, 0.0579869, "- N/A -   "
0.19, 6.60506, 4.331733E-4, NaN, NaN, NaN, 0.05676616, "- N/A -   "
0.2, 6.9589, 0.000452611, NaN, NaN, NaN, 0.0543246, "- N/A -   "
0.21, 7.07685, 4.720478E-4, NaN, NaN, NaN, 0.0543246, "- N/A -   "
0.22, 7.548638, 0.000491485, NaN, NaN, NaN, 0.05188305, "- N/A -   "
0.23, 7.784533, 5.136991E-4, NaN, NaN, NaN, 0.0494415, "- N/A -   "
0.24, 8.020428, 5.359131E-4, NaN, NaN, NaN, 0.0482207, "- N/A -   "
0.25, 8.256323, 5.525736E-4, NaN, NaN, NaN, 0.04699994, "- N/A -   "
0.26, 8.492218, 5.720109E-4, NaN, NaN, NaN, 0.04577916, "- N/A -   "
0.27, 8.728113, 0.000591448, NaN, NaN, NaN, 0.0445584, "- N/A -   "
0.28, 8.964007, 6.108854E-4, NaN, NaN, NaN, 0.0433376, "- N/A -   "
0.29, 9.199903, 0.000630323, NaN, NaN, NaN, 0.0433376, "- N/A -   "
0.3, 9.435798, 0.000646983, NaN, NaN, NaN, 0.04211683, "- N/A -   "
0.31, 9.671693, 0.00066642, NaN, NaN, NaN, 0.04089605, "- N/A -   "
0.32, 9.907588, 6.858577E-4, NaN, NaN, NaN, 0.04089605, "- N/A -   "
0.33, 10.26143, 0.000705295, NaN, NaN, NaN, 0.0396753, "- N/A -   "
0.34, 10.4973, 0.000724732, NaN, NaN, NaN, 0.0384545, "- N/A -   "
0.35, 10.73322, 7.38616E-4, NaN, NaN, NaN, 0.0384545, "- N/A -   "
0.36, 10.8512, 7.552765E-4, NaN, NaN, NaN, 0.0384545, "- N/A -   "
0.37, 11.0871, 0.000774714, NaN, NaN, NaN, 0.0372337, "- N/A -   "
0.38, 11.4409, 0.000791374, NaN, NaN, NaN, 0.0372337, "- N/A -   "
0.39, 11.6768, 8.108115E-4, NaN, NaN, NaN, 0.03601294, "- N/A -   "
0.4, 11.7947, 8.27472E-4, NaN, NaN, NaN, 0.03601294, "- N/A -   "
0.41, 12.0306, 8.469093E-4, NaN, NaN, NaN, 0.0347922, "- N/A -   "
0.63, 16.86649, 0.00121066, NaN, NaN, NaN, 0.0372337, "- N/A -   "
0.85, 21.93823, 0.00156053, NaN, NaN, NaN, 0.0433376, "- N/A -   "
1.07, 27.95355, 0.00196039, NaN, NaN, NaN, 0.0286883, "- N/A -   "
1.29, 33.61503, 0.002304704, NaN, NaN, NaN, 0.0396753, "- N/A -   "
1.51, 39.6304, 0.00265735, NaN, NaN, NaN, 0.0445584, "- N/A -   "
1.73, 46.8251, 0.00305165, NaN, NaN, NaN, 0.0335714, "- N/A -   "
1.95, 54.0199, 0.0034154, NaN, NaN, NaN, 0.0335714, "- N/A -   "
2.17, 61.2147, 0.003770829, NaN, NaN, NaN, 0.0384545, "- N/A -   "
2.39, 68.9993, 0.00414569, NaN, NaN, NaN, 0.03601294, "- N/A -   "
2.61, 76.6659, 0.004512222, NaN, NaN, NaN, 0.0347922, "- N/A -   "
2.83, 84.21449, 0.004864869, NaN, NaN, NaN, 0.04089605, "- N/A -   "
3.05, 92.58876, 0.00524528, NaN, NaN, NaN, 0.03601294, "- N/A -   "
3.27, 100.845, 0.0056257, NaN, NaN, NaN, 0.0286883, "- N/A -   "
3.49, 107.922, 0.00595891, NaN, NaN, NaN, 0.0433376, "- N/A -   "
3.71, 116.414, 0.006342102, NaN, NaN, NaN, 0.0372337, "- N/A -   "
3.93, 124.788, 0.00672252, NaN, NaN, NaN, 0.03112983, "- N/A -   "
4.15, 131.865, 0.0070585, NaN, NaN, NaN, 0.0445584, "- N/A -   "
4.37, 140.24, 0.00743892, NaN, NaN, NaN, 0.0384545, "- N/A -   "
4.59, 148.142, 0.007819333, NaN, NaN, NaN, 0.0335714, "- N/A -   "
4.81, 155.573, 0.008169204, NaN, NaN, NaN, 0.0396753, "- N/A -   "
5.03, 163.357, 0.008544065, NaN, NaN, NaN, 0.0372337, "- N/A -   "
5.25, 170.67, 0.008910597, NaN, NaN, NaN, 0.03601294, "- N/A -   "
5.47, 177.511, 0.009268798, NaN, NaN, NaN, 0.0396753, "- N/A -   "
5.69, 184.706, 0.009640883, NaN, NaN, NaN, 0.0372337, "- N/A -   "
5.91, 191.665, 0.0100074, NaN, NaN, NaN, 0.0372337, "- N/A -   "
6.13, 198.977, 0.0103878, NaN, NaN, NaN, 0.0323506, "- N/A -   "
6.35, 205.465, 0.0107238, NaN, NaN, NaN, 0.0445584, "- N/A -   "
6.57, 213.013, 0.0111209, NaN, NaN, NaN, 0.0323506, "- N/A -   "
6.79, 219.972, 0.0114874, NaN, NaN, NaN, 0.0323506, "- N/A -   "
7.01, 226.459, 0.0118234, NaN, NaN, NaN, 0.0445584, "- N/A -   "
7.23, 234.362, 0.0122205, NaN, NaN, NaN, 0.03112983, "- N/A -   "
7.45, 241.203, 0.01258424, NaN, NaN, NaN, 0.0335714, "- N/A -   "
7.67, 247.92, 0.01292578, NaN, NaN, NaN, 0.0445584, "- N/A -   "
7.89, 255.814, 0.0133256, NaN, NaN, NaN, 0.0286883, "- N/A -   "
8.11, 262.648, 0.0136755, NaN, NaN, NaN, 0.0372337, "- N/A -   "
8.33, 269.482, 0.0140226, NaN, NaN, NaN, 0.04699994, "- N/A -   "
8.55, 277.377, 0.0144197, NaN, NaN, NaN, 0.0323506, "- N/A -   "
8.77, 284.917, 0.014789, NaN, NaN, NaN, 0.03112983, "- N/A -   "
8.99, 291.8691, 0.0151389, NaN, NaN, NaN, 0.0384545, "- N/A -   "
9.21, 299.41, 0.01550816, NaN, NaN, NaN, 0.0372337, "- N/A -   "
9.43, 306.9509, 0.0158775, NaN, NaN, NaN, 0.03601294, "- N/A -   "
9.65, 314.138, 0.0162301, NaN, NaN, NaN, 0.04211683, "- N/A -   "
9.87, 322.268, 0.01661886, NaN, NaN, NaN, 0.0335714, "- N/A -   "
10.09, 329.927, 0.0169965, NaN, NaN, NaN, 0.0274675, "- N/A -   "
10.31, 336.761, 0.01732971, NaN, NaN, NaN, 0.04211683, "- N/A -   "
10.53, 344.773, 0.0177129, NaN, NaN, NaN, 0.0347922, "- N/A -   "
10.75, 352.903, 0.0180905, NaN, NaN, NaN, 0.0299091, "- N/A -   "
10.97, 359.737, 0.0184265, NaN, NaN, NaN, 0.0433376, "- N/A -   "
11.19, 367.985, 0.01880694, NaN, NaN, NaN, 0.0384545, "- N/A -   "
11.41, 376.1148, 0.0191874, NaN, NaN, NaN, 0.03112983, "- N/A -   "
11.63, 383.538, 0.01953445, NaN, NaN, NaN, 0.0396753, "- N/A -   "
11.85, 391.786, 0.0199093, NaN, NaN, NaN, 0.03601294, "- N/A -   "
12.07, 399.798, 0.02027584, NaN, NaN, NaN, 0.0372337, "- N/A -   "
12.29, 407.81, 0.0206368, NaN, NaN, NaN, 0.0396753, "- N/A -   "
12.51, 415.94, 0.0210061, NaN, NaN, NaN, 0.0372337, "- N/A -   "
12.73, 424.306, 0.0213865, NaN, NaN, NaN, 0.0335714, "- N/A -   "
12.95, 432.5535, 0.0217503, NaN, NaN, NaN, 0.0347922, "- N/A -   "
13.17, 440.2122, 0.0220946, NaN, NaN, NaN, 0.0433376, "- N/A -   "
13.39, 449.167, 0.02248336, NaN, NaN, NaN, 0.0335714, "- N/A -   "
13.61, 457.5326, 0.0228554, NaN, NaN, NaN, 0.03112983, "- N/A -   "
13.83, 464.838, 0.0231803, NaN, NaN, NaN, 0.0494415, "- N/A -   "
14.05, 474.5, 0.02359406, NaN, NaN, NaN, 0.0299091, "- N/A -   "
14.27, 482.63, 0.0239467, NaN, NaN, NaN, 0.0347922, "- N/A -   "
14.49, 490.5239, 0.024291, NaN, NaN, NaN, 0.0445584, "- N/A -   "
14.71, 500.186, 0.02469921, NaN, NaN, NaN, 0.0262467, "- N/A -   "
14.93, 508.5513, 0.0250491, NaN, NaN, NaN, 0.0335714, "- N/A -   "
[...]
21.31, 772.6533, 0.03565905, NaN, NaN, NaN, 0.0433376, "- N/A -   "
21.53, 783.062, 0.03605335, NaN, NaN, NaN, 0.03112983, "- N/A -   "
21.75, 792.525, 0.03640877, NaN, NaN, NaN, 0.0372337, "- N/A -   "
21.97, 801.6321, 0.0367586, NaN, NaN, NaN, 0.0445584, "- N/A -   "
22.19, 812.1592, 0.0371557, NaN, NaN, NaN, 0.0323506, "- N/A -   "
22.41, 821.858, 0.03752225, NaN, NaN, NaN, 0.0323506, "- N/A -   "
22.63, 830.848, 0.037861, NaN, NaN, NaN, 0.0433376, "- N/A -   "
22.85, 841.2562, 0.0382498, NaN, NaN, NaN, 0.0347922, "- N/A -   "
23.07, 850.8369, 0.03861629, NaN, NaN, NaN, 0.0335714, "- N/A -   "
23.29, 860.063, 0.03896616, NaN, NaN, NaN, 0.04089605, "- N/A -   "
23.51, 870.4716, 0.0393466, NaN, NaN, NaN, 0.03601294, "- N/A -   "
23.73, 880.407, 0.0397242, NaN, NaN, NaN, 0.0299091, "- N/A -   "
23.95, 889.16, 0.0400602, NaN, NaN, NaN, 0.0445584, "- N/A -   "
24.17, 899.4504, 0.04044339, NaN, NaN, NaN, 0.03601294, "- N/A -   "
24.39, 909.386, 0.040821, NaN, NaN, NaN, 0.03112983, "- N/A -   "
24.61, 918.257, 0.041157, NaN, NaN, NaN, 0.0445584, "- N/A -   "
24.83, 928.4292, 0.04153743, NaN, NaN, NaN, 0.0396753, "- N/A -   "
25.05, 938.7196, 0.04192062, NaN, NaN, NaN, 0.03112983, "- N/A -   "
25.27, 947.946, 0.0422705, NaN, NaN, NaN, 0.0384545, "- N/A -   "
25.49, 957.9994, 0.042637, NaN, NaN, NaN, 0.0384545, "- N/A -   "
25.71, 967.6984, 0.04300911, NaN, NaN, NaN, 0.03601294, "- N/A -   "
25.93, 977.516, 0.0433729, NaN, NaN, NaN, 0.0372337, "- N/A -   "
26.15, 987.57, 0.0437422, NaN, NaN, NaN, 0.0372337, "- N/A -   "
26.37, 997.86, 0.0441226, NaN, NaN, NaN, 0.03112983, "- N/A -   "
26.59, 1007.559, 0.0444863, NaN, NaN, NaN, 0.0323506, "- N/A -   "
26.81, 1016.46, 0.0448196, NaN, NaN, NaN, 0.04699994, "- N/A -   "
27.03, 1027.31, 0.0452166, NaN, NaN, NaN, 0.0335714, "- N/A -   "
27.25, 1037.33, 0.0455887, NaN, NaN, NaN, 0.03112983, "- N/A -   "
27.47, 1046.27, 0.04592192, NaN, NaN, NaN, 0.04699994, "- N/A -   "
27.69, 1057.24, 0.046319, NaN, NaN, NaN, 0.0323506, "- N/A -   "
27.91, 1067.02, 0.0466855, NaN, NaN, NaN, 0.0335714, "- N/A -   "
28.13, 1076.32, 0.04702707, NaN, NaN, NaN, 0.0445584, "- N/A -   "
28.35, 1087.294, 0.0474241, NaN, NaN, NaN, 0.0299091, "- N/A -   "
28.57, 1096.71, 0.0477712, NaN, NaN, NaN, 0.0396753, "- N/A -   "
28.79, 1106.02, 0.04811556, NaN, NaN, NaN, 0.0494415, "- N/A -   "
29.01, 1117.35, 0.0485265, NaN, NaN, NaN, 0.0286883, "- N/A -   "
29.23, 1127.12, 0.04888472, NaN, NaN, NaN, 0.0323506, "- N/A -   "
29.45, 1136.545, 0.0492374, NaN, NaN, NaN, 0.0384545, "- N/A -   "
29.67, 1146.68, 0.0496067, NaN, NaN, NaN, 0.0372337, "- N/A -   "
29.89, 1156.94, 0.0499815, NaN, NaN, NaN, 0.0335714, "- N/A -   "
30.11, 1166.358, 0.05033418, NaN, NaN, NaN, 0.0396753, "- N/A -   "
30.33, 1176.73, 0.0507146, NaN, NaN, NaN, 0.0335714, "- N/A -   "
30.55, 1186.75, 0.0510895, NaN, NaN, NaN, 0.0299091, "- N/A -   "
30.77, 1195.81, 0.05142822, NaN, NaN, NaN, 0.0433376, "- N/A -   "
30.99, 1206.069, 0.0518059, NaN, NaN, NaN, 0.0384545, "- N/A -   "
31.21, 1216.44, 0.0521946, NaN, NaN, NaN, 0.0286883, "- N/A -   "
31.43, 1225.03, 0.05252504, NaN, NaN, NaN, 0.0445584, "- N/A -   "
31.65, 1235.52, 0.05290823, NaN, NaN, NaN, 0.0372337, "- N/A -   "
31.87, 1245.66, 0.0532886, NaN, NaN, NaN, 0.03112983, "- N/A -   "
32.09, 1255.08, 0.0536413, NaN, NaN, NaN, 0.0372337, "- N/A -   "
32.31, 1264.98, 0.054005, NaN, NaN, NaN, 0.0396753, "- N/A -   "
32.53, 1274.758, 0.05437713, NaN, NaN, NaN, 0.03601294, "- N/A -   "
32.75, 1284.42, 0.0547381, NaN, NaN, NaN, 0.0384545, "- N/A -   "
32.845, 1288.59, 0.0548936, NaN, NaN, NaN, 0.0396753, "- N/A -   "