Folder: DigitalTwins-Machine-Learning/2_Tensile_Data (part 18)

File: Hamel_ForceTest_Bolt6_Test1.csv
Time, Load (lb), Position (in), AxialStrain (in), TransverseStrain (in), Auxiliary (), Control Out (V), Stress (psi)
0.0,1.06153,0.0, NaN, NaN, NaN,0.11048," ""- N/A -   """
0.01,1.29742,2.77675e-05, NaN, NaN, NaN,0.111701," ""- N/A -   """
0.02,1.65126,5.83118e-05, NaN, NaN, NaN,0.104376," ""- N/A -   """
0.03,1.88716,8.885606e-05, NaN, NaN, NaN,0.09949338," ""- N/A -   """
0.08,3.06663,0.0002138099, NaN, NaN, NaN,0.0799609," ""- N/A -   """
0.13,4.010214,0.000327657, NaN, NaN, NaN,0.06653238," ""- N/A -   """
0.18,4.953794,0.000441504, NaN, NaN, NaN,0.0543246," ""- N/A -   """
0.23,6.01532,0.0005581271, NaN, NaN, NaN,0.0396753," ""- N/A -   """
0.28,6.84095,0.0006525367, NaN, NaN, NaN,0.0347922," ""- N/A -   """
0.33,7.784533,0.000738616, NaN, NaN, NaN,0.0323506," ""- N/A -   """
0.38,8.37427,0.0008191418, NaN, NaN, NaN,0.0347922," ""- N/A -   """
0.43,9.199903,0.0008941141, NaN, NaN, NaN,0.0372337," ""- N/A -   """
0.48,9.907588,0.000971863, NaN, NaN, NaN,0.0396753," ""- N/A -   """
0.53,10.8512,0.00105794, NaN, NaN, NaN,0.0396753," ""- N/A -   """
0.58,11.5589,0.00113847, NaN, NaN, NaN,0.0396753," ""- N/A -   """
0.63,12.3845,0.001218994, NaN, NaN, NaN,0.04089605," ""- N/A -   """
0.68,13.2101,0.00129952, NaN, NaN, NaN,0.0433376," ""- N/A -   """
0.73,14.1537,0.00138005, NaN, NaN, NaN,0.0433376," ""- N/A -   """
0.78,15.2152,0.001477232, NaN, NaN, NaN,0.0384545," ""- N/A -   """
0.83,16.27675,0.00156886, NaN, NaN, NaN,0.0335714," ""- N/A -   """
0.88,17.2203,0.0016605, NaN, NaN, NaN,0.0299091," ""- N/A -   """
0.93,18.046,0.00174102, NaN, NaN, NaN,0.03112983," ""- N/A -   """
0.98,18.9895,0.00181877, NaN, NaN, NaN,0.0347922," ""- N/A -   """
1.03,19.8152,0.00189374, NaN, NaN, NaN,0.0372337," ""- N/A -   """
1.08,20.7588,0.001982601, NaN, NaN, NaN,0.03601294," ""- N/A -   """
1.13,21.8203,0.00206868, NaN, NaN, NaN,0.0335714," ""- N/A -   """
1.18,22.7639,0.00215198, NaN, NaN, NaN,0.0335714," ""- N/A -   """
1.23,23.82539,0.00223251, NaN, NaN, NaN,0.0347922," ""- N/A -   """
1.28,24.5331,0.0023047, NaN, NaN, NaN,0.0396753," ""- N/A -   """
1.33,25.5946,0.00238245, NaN, NaN, NaN,0.0433376," ""- N/A -   """
1.38,26.5382,0.00246853, NaN, NaN, NaN,0.04211683," ""- N/A -   """
1.43,27.5997,0.00255183, NaN, NaN, NaN,0.04089605," ""- N/A -   """
1.48,28.7792,0.00264347, NaN, NaN, NaN,0.0384545," ""- N/A -   """
1.53,29.84071,0.00272677, NaN, NaN, NaN,0.0372337," ""- N/A -   """
1.58,31.0202,0.00281563, NaN, NaN, NaN,0.0347922," ""- N/A -   """
1.63,32.08171,0.002898929, NaN, NaN, NaN,0.0347922," ""- N/A -   """
1.68,33.1432,0.002985008, NaN, NaN, NaN,0.0335714," ""- N/A -   """
1.73,34.2048,0.00307109, NaN, NaN, NaN,0.0323506," ""- N/A -   """
1.78,35.3842,0.003151613, NaN, NaN, NaN,0.0335714," ""- N/A -   """
1.83,36.32782,0.00323214, NaN, NaN, NaN,0.0347922," ""- N/A -   """
1.88,37.5073,0.003312665, NaN, NaN, NaN,0.03601294," ""- N/A -   """
1.93,38.68677,0.00339874, NaN, NaN, NaN,0.0347922," ""- N/A -   """
1.98,39.7483,0.00347372, NaN, NaN, NaN,0.0384545," ""- N/A -   """
2.03,40.69188,0.00355702, NaN, NaN, NaN,0.0384545," ""- N/A -   """
2.08,41.8714,0.003637545, NaN, NaN, NaN,0.0396753," ""- N/A -   """
2.13,43.0508,0.00371807, NaN, NaN, NaN,0.04211683," ""- N/A -   """
2.18,44.1124,0.00380137, NaN, NaN, NaN,0.04089605," ""- N/A -   """
2.23,45.5277,0.00389301, NaN, NaN, NaN,0.0372337," ""- N/A -   """
2.28,46.7072,0.003981862, NaN, NaN, NaN,0.0347922," ""- N/A -   """
2.33,47.8867,0.00406794, NaN, NaN, NaN,0.0335714," ""- N/A -   """
2.38,48.9482,0.00415124, NaN, NaN, NaN,0.0335714," ""- N/A -   """
2.43,50.1277,0.004234547, NaN, NaN, NaN,0.0347922," ""- N/A -   """
2.48,51.543,0.00432618, NaN, NaN, NaN,0.0299091," ""- N/A -   """
2.53,52.72252,0.004409482, NaN, NaN, NaN,0.0299091," ""- N/A -   """
2.58,53.902,0.00449001, NaN, NaN, NaN,0.0323506," ""- N/A -   """
2.63,54.8456,0.00456498, NaN, NaN, NaN,0.0347922," ""- N/A -   """
2.68,55.7892,0.004634399, NaN, NaN, NaN,0.04211683," ""- N/A -   """
2.73,56.9686,0.00470659, NaN, NaN, NaN,0.04699994," ""- N/A -   """
2.78,58.1481,0.0047899, NaN, NaN, NaN,0.04577916," ""- N/A -   """
2.83,59.68142,0.004884307, NaN, NaN, NaN,0.04211683," ""- N/A -   """
2.88,60.97884,0.004975939, NaN, NaN, NaN,0.0372337," ""- N/A -   """
2.93,62.3942,0.0050648, NaN, NaN, NaN,0.0347922," ""- N/A -   """
2.98,63.6916,0.005150875, NaN, NaN, NaN,0.0335714," ""- N/A -   """
3.03,65.107,0.00524251, NaN, NaN, NaN,0.0299091," ""- N/A -   """
3.08,66.40443,0.00532859, NaN, NaN, NaN,0.0299091," ""- N/A -   """
3.13,67.70185,0.00541189, NaN, NaN, NaN,0.0286883," ""- N/A -   """
3.18,68.9993,0.00549519, NaN, NaN, NaN,0.0286883," ""- N/A -   """
3.23,70.17874,0.00556739, NaN, NaN, NaN,0.0335714," ""- N/A -   """
3.28,71.24027,0.00563958, NaN, NaN, NaN,0.0384545," ""- N/A -   """
3.33,72.3018,0.005709002, NaN, NaN, NaN,0.0445584," ""- N/A -   """
3.38,73.83511,0.0057923, NaN, NaN, NaN,0.0445584," ""- N/A -   """
3.43,75.36844,0.00588116, NaN, NaN, NaN,0.04211683," ""- N/A -   """
3.48,76.7838,0.005964463, NaN, NaN, NaN,0.0433376," ""- N/A -   """
3.53,78.31712,0.006056096, NaN, NaN, NaN,0.0396753," ""- N/A -   """
3.58,79.96838,0.006147729, NaN, NaN, NaN,0.0372337," ""- N/A -   """
3.63,81.61965,0.006236585, NaN, NaN, NaN,0.0335714," ""- N/A -   """
3.68,83.15297,0.006330994, NaN, NaN, NaN,0.0299091," ""- N/A -   """
3.73,84.80424,0.006417074, NaN, NaN, NaN,0.0274675," ""- N/A -   """
3.78,86.1017,0.006494823, NaN, NaN, NaN,0.03112983," ""- N/A -   """
3.83,87.51702,0.006567018, NaN, NaN, NaN,0.0347922," ""- N/A -   """
3.88,89.05035,0.006650321, NaN, NaN, NaN,0.03601294," ""- N/A -   """
3.93,90.4657,0.006730847, NaN, NaN, NaN,0.03601294," ""- N/A -   """
3.98,91.88108,0.00681137, NaN, NaN, NaN,0.0372337," ""- N/A -   """
4.03,93.2965,0.006886345, NaN, NaN, NaN,0.04089605," ""- N/A -   """
4.08,94.7118,0.00696132, NaN, NaN, NaN,0.0445584," ""- N/A -   """
4.13,96.24514,0.007041843, NaN, NaN, NaN,0.04577916," ""- N/A -   """
4.18,98.01435,0.007130699, NaN, NaN, NaN,0.0433376," ""- N/A -   """
4.23,100.019,0.00723344, NaN, NaN, NaN,0.0347922," ""- N/A -   """
4.28,101.671,0.00732507, NaN, NaN, NaN,0.03112983," ""- N/A -   """
4.33,103.086,0.00740837, NaN, NaN, NaN,0.03112983," ""- N/A -   """
4.38,104.619,0.00748612, NaN, NaN, NaN,0.0335714," ""- N/A -   """
4.43,106.035,0.007566649, NaN, NaN, NaN,0.03601294," ""- N/A -   """
4.48,107.804,0.00764995, NaN, NaN, NaN,0.03601294," ""- N/A -   """
4.53,109.455,0.00773881, NaN, NaN, NaN,0.0323506," ""- N/A -   """
4.58,110.989,0.007819334, NaN, NaN, NaN,0.0335714," ""- N/A -   """
4.63,112.404,0.007897083, NaN, NaN, NaN,0.03601294," ""- N/A -   """
4.68,113.583,0.007966501, NaN, NaN, NaN,0.04211683," ""- N/A -   """
4.73,115.235,0.008047027, NaN, NaN, NaN,0.0445584," ""- N/A -   """
4.78,117.004,0.008135883, NaN, NaN, NaN,0.04089605," ""- N/A -   """
4.83,118.7731,0.008224739, NaN, NaN, NaN,0.0396753," ""- N/A -   """
4.88,120.542,0.008313595, NaN, NaN, NaN,0.0372337," ""- N/A -   """
4.93,122.194,0.008396898, NaN, NaN, NaN,0.03601294," ""- N/A -   """
4.98,123.609,0.008480201, NaN, NaN, NaN,0.0372337," ""- N/A -   """
5.03,125.142,0.008560726, NaN, NaN, NaN,0.0384545," ""- N/A -   """
5.08,127.029,0.008649582, NaN, NaN, NaN,0.0347922," ""- N/A -   """
5.13,128.799,0.008738439, NaN, NaN, NaN,0.0323506," ""- N/A -   """
[...]
22.02,715.9968,0.036878, NaN, NaN, NaN,0.0384545," ""- N/A -   """
22.17,722.384,0.03713628, NaN, NaN, NaN,0.0335714," ""- N/A -   """
22.32,728.1797,0.03738341, NaN, NaN, NaN,0.03601294," ""- N/A -   """
22.47,733.9755,0.03762499, NaN, NaN, NaN,0.0396753," ""- N/A -   """
22.62,740.0078,0.0378638, NaN, NaN, NaN,0.0433376," ""- N/A -   """
22.77,746.868,0.0381387, NaN, NaN, NaN,0.0323506," ""- N/A -   """
22.92,753.019,0.0383941, NaN, NaN, NaN,0.0299091," ""- N/A -   """
23.07,758.933,0.0386385, NaN, NaN, NaN,0.0335714," ""- N/A -   """
23.22,764.1371,0.03885509, NaN, NaN, NaN,0.04699994," ""- N/A -   """
23.37,770.879,0.0391272, NaN, NaN, NaN,0.0372337," ""- N/A -   """
23.52,777.6211,0.0393966, NaN, NaN, NaN,0.0286883," ""- N/A -   """
23.67,783.2986,0.0396326, NaN, NaN, NaN,0.0347922," ""- N/A -   """
23.82,788.6212,0.03986028, NaN, NaN, NaN,0.0445584," ""- N/A -   """
23.97,794.89,0.0401157, NaN, NaN, NaN,0.04211683," ""- N/A -   """
24.12,802.1053,0.04040174, NaN, NaN, NaN,0.0274675," ""- N/A -   """
24.27,807.901,0.0406378, NaN, NaN, NaN,0.0323506," ""- N/A -   """
24.42,814.17,0.0408877, NaN, NaN, NaN,0.0323506," ""- N/A -   """
24.57,819.4925,0.0411154, NaN, NaN, NaN,0.0433376," ""- N/A -   """
24.72,825.998,0.0413736, NaN, NaN, NaN,0.0384545," ""- N/A -   """
24.87,832.385,0.0416291, NaN, NaN, NaN,0.0372337," ""- N/A -   """
25.02,839.0089,0.0418929, NaN, NaN, NaN,0.0299091," ""- N/A -   """
25.17,844.568,0.04212055, NaN, NaN, NaN,0.0396753," ""- N/A -   """
25.32,850.7187,0.0423705, NaN, NaN, NaN,0.0396753," ""- N/A -   """
25.47,857.3424,0.0426315, NaN, NaN, NaN,0.0347922," ""- N/A -   """
25.62,863.848,0.04288971, NaN, NaN, NaN,0.03112983," ""- N/A -   """
25.77,870.117,0.0431424, NaN, NaN, NaN,0.0299091," ""- N/A -   """
25.92,875.5577,0.0433645, NaN, NaN, NaN,0.04211683," ""- N/A -   """
26.07,881.827,0.0436117, NaN, NaN, NaN,0.0433376," ""- N/A -   """
26.22,888.8051,0.0438893, NaN, NaN, NaN,0.0335714," ""- N/A -   """
26.37,895.192,0.0441448, NaN, NaN, NaN,0.0299091," ""- N/A -   """
26.52,900.8698,0.04437527, NaN, NaN, NaN,0.0384545," ""- N/A -   """
26.67,906.6655,0.04460852, NaN, NaN, NaN,0.04577916," ""- N/A -   """
26.82,913.8807,0.044889, NaN, NaN, NaN,0.0335714," ""- N/A -   """
26.97,920.3861,0.04514721, NaN, NaN, NaN,0.0299091," ""- N/A -   """
27.12,926.3001,0.045386, NaN, NaN, NaN,0.0335714," ""- N/A -   """
27.27,931.8593,0.0456137, NaN, NaN, NaN,0.0445584," ""- N/A -   """
27.42,938.4831,0.04587194, NaN, NaN, NaN,0.04089605," ""- N/A -   """
27.57,945.4617,0.0461413, NaN, NaN, NaN,0.03112983," ""- N/A -   """
27.72,951.612,0.0463829, NaN, NaN, NaN,0.03601294," ""- N/A -   """
27.87,957.7628,0.04662722, NaN, NaN, NaN,0.0372337," ""- N/A -   """
28.02,963.559,0.0468605, NaN, NaN, NaN,0.0445584," ""- N/A -   """
28.17,971.129,0.0471465, NaN, NaN, NaN,0.0299091," ""- N/A -   """
28.32,976.8061,0.0473769, NaN, NaN, NaN,0.0372337," ""- N/A -   """
28.47,983.7846,0.0476407, NaN, NaN, NaN,0.03112983," ""- N/A -   """
28.62,989.3438,0.0478712, NaN, NaN, NaN,0.04089605," ""- N/A -   """
28.77,995.9675,0.0481211, NaN, NaN, NaN,0.0396753," ""- N/A -   """
28.92,1002.35,0.04837657, NaN, NaN, NaN,0.0372337," ""- N/A -   """
29.07,1008.98,0.0486376, NaN, NaN, NaN,0.0323506," ""- N/A -   """
29.22,1015.385,0.04889027, NaN, NaN, NaN,0.0323506," ""- N/A -   """
29.37,1020.99,0.0491124, NaN, NaN, NaN,0.0433376," ""- N/A -   """
29.52,1028.03,0.04938176, NaN, NaN, NaN,0.03601294," ""- N/A -   """
29.67,1034.35,0.04963444, NaN, NaN, NaN,0.0335714," ""- N/A -   """
29.808,1040.79,0.0498788, NaN, NaN, NaN,0.0286883," ""- N/A -   """

File: Hamel_ForceTest_Bolt6_Test2.csv
Time, Load (lb), Position (in), AxialStrain (in), TransverseStrain (in), Auxiliary (), Control Out (V), Stress (psi)
0.0, 1.06153, 0.0, NaN, NaN, NaN, 0.04699994, "- N/A -   "
0.00999999, 1.29742, 1.38838e-05, NaN, NaN, NaN, 0.0482207, "- N/A -   "
0.02, 1.29742, 3.054427E-5, NaN, NaN, NaN, 0.0482207, "- N/A -   "
0.03, 1.53332, 4.442803E-5, NaN, NaN, NaN, 0.0494415, "- N/A -   "
0.04, 1.53332, 6.108854E-5, NaN, NaN, NaN, 0.0494415, "- N/A -   "
0.05, 1.65126, 8.05258E-5, NaN, NaN, NaN, 0.0494415, "- N/A -   "
0.06, 1.76921, 9.718631E-5, NaN, NaN, NaN, 0.0494415, "- N/A -   "
0.07, 1.88716, 0.000116624, NaN, NaN, NaN, 0.0482207, "- N/A -   "
0.08, 2.005107, 0.000133284, NaN, NaN, NaN, 0.04699994, "- N/A -   "
0.09, 2.241, 1.554981E-4, NaN, NaN, NaN, 0.0445584, "- N/A -   "
0.1, 2.35895, 0.000174935, NaN, NaN, NaN, 0.0433376, "- N/A -   "
0.11, 2.35895, 0.000194373, NaN, NaN, NaN, 0.0433376, "- N/A -   "
0.12, 2.476897, 2.138099E-4, NaN, NaN, NaN, 0.04089605, "- N/A -   "
0.13, 2.59484, 2.304704E-4, NaN, NaN, NaN, 0.04089605, "- N/A -   "
0.14, 2.83074, 0.000249908, NaN, NaN, NaN, 0.0396753, "- N/A -   "
0.15, 2.83074, 2.721217E-4, NaN, NaN, NaN, 0.0384545, "- N/A -   "
0.16, 2.94869, 0.000288782, NaN, NaN, NaN, 0.0372337, "- N/A -   "
0.17, 3.06663, 3.109962E-4, NaN, NaN, NaN, 0.03601294, "- N/A -   "
0.18, 3.18458, 0.000327657, NaN, NaN, NaN, 0.0347922, "- N/A -   "
0.19, 3.30253, 0.000347094, NaN, NaN, NaN, 0.0335714, "- N/A -   "
0.2, 3.53842, 0.000366531, NaN, NaN, NaN, 0.0323506, "- N/A -   "
0.21, 3.65637, 3.859685E-4, NaN, NaN, NaN, 0.03112983, "- N/A -   "
0.22, 3.774319, 0.000402629, NaN, NaN, NaN, 0.03112983, "- N/A -   "
0.23, 3.89227, 0.000422066, NaN, NaN, NaN, 0.03112983, "- N/A -   "
0.24, 4.010214, 4.387268E-4, NaN, NaN, NaN, 0.0299091, "- N/A -   "
0.25, 4.12816, 4.553873E-4, NaN, NaN, NaN, 0.03112983, "- N/A -   "
0.26, 4.246109, 4.720478E-4, NaN, NaN, NaN, 0.0299091, "- N/A -   "
0.27, 4.36406, 4.887083E-4, NaN, NaN, NaN, 0.03112983, "- N/A -   "
0.28, 4.36406, 5.053688E-4, NaN, NaN, NaN, 0.0299091, "- N/A -   "
0.29, 4.59995, 0.000522029, NaN, NaN, NaN, 0.0299091, "- N/A -   "
0.3, 4.59995, 0.00053869, NaN, NaN, NaN, 0.0299091, "- N/A -   "
0.31, 4.717899, 5.553504E-4, NaN, NaN, NaN, 0.0299091, "- N/A -   "
0.32, 4.83585, 5.720109E-4, NaN, NaN, NaN, 0.0299091, "- N/A -   "
0.33, 4.953794, 0.000588671, NaN, NaN, NaN, 0.03112983, "- N/A -   "
0.34, 5.071741, 0.000602555, NaN, NaN, NaN, 0.03112983, "- N/A -   "
0.35, 5.071741, 6.164389E-4, NaN, NaN, NaN, 0.0323506, "- N/A -   "
0.36, 5.307636, 6.330994E-4, NaN, NaN, NaN, 0.0323506, "- N/A -   "
0.37, 5.425584, 6.497599E-4, NaN, NaN, NaN, 0.0323506, "- N/A -   "
0.38, 5.54353, 0.00066642, NaN, NaN, NaN, 0.0323506, "- N/A -   "
0.39, 5.66148, 6.803042E-4, NaN, NaN, NaN, 0.0335714, "- N/A -   "
0.4, 5.779426, 0.000694188, NaN, NaN, NaN, 0.0347922, "- N/A -   "
0.41, 5.779426, 7.108485E-4, NaN, NaN, NaN, 0.0347922, "- N/A -   "
0.42, 5.897373, 7.27509E-4, NaN, NaN, NaN, 0.0347922, "- N/A -   "
0.43, 6.01532, 0.000744169, NaN, NaN, NaN, 0.0347922, "- N/A -   "
0.44, 6.13327, 0.000758053, NaN, NaN, NaN, 0.03601294, "- N/A -   "
0.45, 6.369163, 0.000774714, NaN, NaN, NaN, 0.03601294, "- N/A -   "
0.46, 6.487111, 0.000791374, NaN, NaN, NaN, 0.03601294, "- N/A -   "
0.47, 6.723006, 8.080348E-4, NaN, NaN, NaN, 0.03601294, "- N/A -   "
0.48, 6.84095, 8.246953E-4, NaN, NaN, NaN, 0.0372337, "- N/A -   "
0.49, 6.9589, 8.413558E-4, NaN, NaN, NaN, 0.0372337, "- N/A -   "
0.5, 7.1948, 8.580163E-4, NaN, NaN, NaN, 0.03601294, "- N/A -   "
0.51, 7.430691, 8.746768E-4, NaN, NaN, NaN, 0.03601294, "- N/A -   "
0.71, 11.7947, 0.00118845, NaN, NaN, NaN, 0.0445584, "- N/A -   "
0.91, 17.1024, 0.0015522, NaN, NaN, NaN, 0.0323506, "- N/A -   "
1.11, 22.29207, 0.00188264, NaN, NaN, NaN, 0.0335714, "- N/A -   "
1.31, 27.5997, 0.00220196, NaN, NaN, NaN, 0.0384545, "- N/A -   "
1.51, 33.49708, 0.00254073, NaN, NaN, NaN, 0.03601294, "- N/A -   "
1.71, 39.5124, 0.00288227, NaN, NaN, NaN, 0.0323506, "- N/A -   "
1.91, 45.40978, 0.003215479, NaN, NaN, NaN, 0.0323506, "- N/A -   "
2.11, 51.1892, 0.003523698, NaN, NaN, NaN, 0.0445584, "- N/A -   "
2.31, 57.6763, 0.00388468, NaN, NaN, NaN, 0.03112983, "- N/A -   "
2.51, 64.04548, 0.00422066, NaN, NaN, NaN, 0.03112983, "- N/A -   "
2.71, 69.47106, 0.004523329, NaN, NaN, NaN, 0.0433376, "- N/A -   "
2.91, 75.8402, 0.004875976, NaN, NaN, NaN, 0.03601294, "- N/A -   "
3.11, 81.8555, 0.00522307, NaN, NaN, NaN, 0.0286883, "- N/A -   "
3.31, 86.80934, 0.00552574, NaN, NaN, NaN, 0.0433376, "- N/A -   "
3.51, 92.47082, 0.0058645, NaN, NaN, NaN, 0.04089605, "- N/A -   "
3.71, 98.2502, 0.006225478, NaN, NaN, NaN, 0.0299091, "- N/A -   "
3.91, 103.322, 0.00654203, NaN, NaN, NaN, 0.03601294, "- N/A -   "
4.11, 108.512, 0.00686135, NaN, NaN, NaN, 0.0433376, "- N/A -   "
4.31, 114.527, 0.007219555, NaN, NaN, NaN, 0.03112983, "- N/A -   "
4.51, 119.953, 0.007549988, NaN, NaN, NaN, 0.0323506, "- N/A -   "
4.71, 125.142, 0.007863761, NaN, NaN, NaN, 0.04089605, "- N/A -   "
4.91, 130.922, 0.008205301, NaN, NaN, NaN, 0.0372337, "- N/A -   "
5.11, 136.583, 0.008549619, NaN, NaN, NaN, 0.0323506, "- N/A -   "
5.31, 142.1267, 0.008880053, NaN, NaN, NaN, 0.0347922, "- N/A -   "
5.51, 147.552, 0.009193826, NaN, NaN, NaN, 0.04211683, "- N/A -   "
5.71, 153.8035, 0.009549249, NaN, NaN, NaN, 0.0323506, "- N/A -   "
5.91, 159.583, 0.00989079, NaN, NaN, NaN, 0.0299091, "- N/A -   "
6.11, 164.773, 0.0101879, NaN, NaN, NaN, 0.0445584, "- N/A -   "
6.31, 171.142, 0.0105433, NaN, NaN, NaN, 0.03601294, "- N/A -   "
6.51, 177.275, 0.0108932, NaN, NaN, NaN, 0.0274675, "- N/A -   "
6.71, 182.583, 0.0111959, NaN, NaN, NaN, 0.04089605, "- N/A -   "
6.91, 188.716, 0.0115291, NaN, NaN, NaN, 0.04089605, "- N/A -   "
7.11, 195.439, 0.0118901, NaN, NaN, NaN, 0.0286883, "- N/A -   "
7.31, 201.454, 0.0122066, NaN, NaN, NaN, 0.03601294, "- N/A -   "
7.51, 207.2337, 0.0125204, NaN, NaN, NaN, 0.0445584, "- N/A -   "
7.71, 214.546, 0.0128952, NaN, NaN, NaN, 0.0262467, "- N/A -   "
7.91, 220.798, 0.01321734, NaN, NaN, NaN, 0.0323506, "- N/A -   "
8.11, 226.577, 0.0135283, NaN, NaN, NaN, 0.04211683, "- N/A -   "
8.31, 233.654, 0.0138782, NaN, NaN, NaN, 0.0347922, "- N/A -   "
8.51, 240.141, 0.01420864, NaN, NaN, NaN, 0.03601294, "- N/A -   "
8.71, 246.86, 0.0145474, NaN, NaN, NaN, 0.0347922, "- N/A -   "
8.91, 252.8687, 0.0148556, NaN, NaN, NaN, 0.0445584, "- N/A -   "
9.11, 260.41, 0.0152194, NaN, NaN, NaN, 0.03112983, "- N/A -   "
9.31, 267.479, 0.0155609, NaN, NaN, NaN, 0.0286883, "- N/A -   "
9.51, 273.253, 0.0158553, NaN, NaN, NaN, 0.0445584, "- N/A -   "
9.71, 280.676, 0.0162079, NaN, NaN, NaN, 0.03601294, "- N/A -   "
9.91, 287.981, 0.0165578, NaN, NaN, NaN, 0.0286883, "- N/A -   "
10.11, 294.226, 0.0168604, NaN, NaN, NaN, 0.04211683, "- N/A -   "
10.31, 301.1774, 0.0171909, NaN, NaN, NaN, 0.0433376, "- N/A -   "
10.51, 309.072, 0.0175574, NaN, NaN, NaN, 0.0286883, "- N/A -   "
10.71, 315.906, 0.01787673, NaN, NaN, NaN, 0.0347922, "- N/A -   "
10.91, 322.622, 0.0181877, NaN, NaN, NaN, 0.0445584, "- N/A -   "
11.11, 331.105, 0.0185681, NaN, NaN, NaN, 0.0250259, "- N/A -   "
11.31, 337.232, 0.0188625, NaN, NaN, NaN, 0.04089605, "- N/A -   "
11.51, 344.1839, 0.019179, NaN, NaN, NaN, 0.0482207, "- N/A -   "
[...]
19.71, 674.953, 0.0328545, NaN, NaN, NaN, 0.0445584, "- N/A -   "
19.91, 684.5341, 0.03321, NaN, NaN, NaN, 0.03601294, "- N/A -   "
20.11, 693.6417, 0.033557, NaN, NaN, NaN, 0.0286883, "- N/A -   "
20.31, 701.8031, 0.0338764, NaN, NaN, NaN, 0.0347922, "- N/A -   "
20.51, 710.083, 0.0341901, NaN, NaN, NaN, 0.0433376, "- N/A -   "
20.71, 719.9001, 0.0345567, NaN, NaN, NaN, 0.0286883, "- N/A -   "
20.91, 727.9432, 0.0348677, NaN, NaN, NaN, 0.0384545, "- N/A -   "
21.11, 736.2228, 0.035187, NaN, NaN, NaN, 0.0445584, "- N/A -   "
21.31, 746.1584, 0.03555353, NaN, NaN, NaN, 0.03112983, "- N/A -   "
21.51, 754.6746, 0.0358784, NaN, NaN, NaN, 0.03601294, "- N/A -   "
21.71, 763.191, 0.03620329, NaN, NaN, NaN, 0.0384545, "- N/A -   "
21.91, 771.8254, 0.03653095, NaN, NaN, NaN, 0.04089605, "- N/A -   "
22.11, 781.0513, 0.0368808, NaN, NaN, NaN, 0.0347922, "- N/A -   "
22.31, 789.5675, 0.0372057, NaN, NaN, NaN, 0.0372337, "- N/A -   "
22.51, 797.847, 0.0375278, NaN, NaN, NaN, 0.04211683, "- N/A -   "
22.71, 807.5462, 0.037886, NaN, NaN, NaN, 0.0323506, "- N/A -   "
22.91, 816.181, 0.0382192, NaN, NaN, NaN, 0.03112983, "- N/A -   "
23.11, 824.4603, 0.03853298, NaN, NaN, NaN, 0.04089605, "- N/A -   "
23.31, 833.4497, 0.0388662, NaN, NaN, NaN, 0.0396753, "- N/A -   "
23.51, 842.9121, 0.03922717, NaN, NaN, NaN, 0.0286883, "- N/A -   "
23.71, 851.0735, 0.0395409, NaN, NaN, NaN, 0.0372337, "- N/A -   "
23.91, 859.3532, 0.03985194, NaN, NaN, NaN, 0.04577916, "- N/A -   "
24.11, 869.5254, 0.0402296, NaN, NaN, NaN, 0.0262467, "- N/A -   "
24.31, 877.805, 0.04054335, NaN, NaN, NaN, 0.0347922, "- N/A -   "
24.51, 886.203, 0.0408599, NaN, NaN, NaN, 0.04211683, "- N/A -   "
24.71, 895.429, 0.0412042, NaN, NaN, NaN, 0.0372337, "- N/A -   "
24.91, 904.063, 0.0415347, NaN, NaN, NaN, 0.0384545, "- N/A -   "
25.11, 913.0527, 0.0418679, NaN, NaN, NaN, 0.0384545, "- N/A -   "
25.31, 922.042, 0.0422066, NaN, NaN, NaN, 0.03601294, "- N/A -   "
25.51, 931.15, 0.04254817, NaN, NaN, NaN, 0.0335714, "- N/A -   "
25.71, 940.021, 0.0428842, NaN, NaN, NaN, 0.0323506, "- N/A -   "
25.91, 948.4187, 0.04319515, NaN, NaN, NaN, 0.04211683, "- N/A -   "
26.11, 957.7628, 0.04353947, NaN, NaN, NaN, 0.0372337, "- N/A -   "
26.31, 966.9888, 0.04388656, NaN, NaN, NaN, 0.03112983, "- N/A -   "
26.51, 975.032, 0.04419756, NaN, NaN, NaN, 0.04211683, "- N/A -   "
26.71, 984.0212, 0.04452799, NaN, NaN, NaN, 0.04211683, "- N/A -   "
26.91, 993.9568, 0.04489175, NaN, NaN, NaN, 0.0286883, "- N/A -   "
27.11, 1002.24, 0.0452083, NaN, NaN, NaN, 0.03601294, "- N/A -   "
27.31, 1010.75, 0.0455248, NaN, NaN, NaN, 0.0445584, "- N/A -   "
27.51, 1020.87, 0.0458886, NaN, NaN, NaN, 0.0299091, "- N/A -   "
27.71, 1029.576, 0.0462135, NaN, NaN, NaN, 0.0335714, "- N/A -   "
27.91, 1038.04, 0.0465245, NaN, NaN, NaN, 0.0433376, "- N/A -   "
28.11, 1048.06, 0.0468827, NaN, NaN, NaN, 0.0323506, "- N/A -   "
28.31, 1056.77, 0.0472076, NaN, NaN, NaN, 0.03601294, "- N/A -   "
28.51, 1065.83, 0.04753799, NaN, NaN, NaN, 0.0372337, "- N/A -   "
28.71, 1074.534, 0.0478656, NaN, NaN, NaN, 0.04089605, "- N/A -   "
28.91, 1083.72, 0.04820163, NaN, NaN, NaN, 0.0396753, "- N/A -   "
29.11, 1093.14, 0.04854873, NaN, NaN, NaN, 0.0323506, "- N/A -   "
29.31, 1101.6, 0.0488681, NaN, NaN, NaN, 0.0384545, "- N/A -   "
29.51, 1111.14, 0.0492124, NaN, NaN, NaN, 0.0335714, "- N/A -   "
29.71, 1120.21, 0.04954836, NaN, NaN, NaN, 0.0323506, "- N/A -   "
29.91, 1128.67, 0.0498705, NaN, NaN, NaN, 0.0384545, "- N/A -   "
30.11, 1137.62, 0.05019812, NaN, NaN, NaN, 0.04089605, "- N/A -   "
30.142, 1139.29, 0.050262, NaN, NaN, NaN, 0.03601294, "- N/A -   "