Folder: DigitalTwins-Machine-Learning/2_Tensile_Data (part 10)

File: Hamel_ForceTest_Bolt4_Test6.csv
Time, Load (lb), Position (in), AxialStrain (in), TransverseStrain (in), Auxiliary (), Control Out (V), Stress (psi)
0.0, 1.17947, 0.0, NaN, NaN, NaN, 0.09705182, "- N/A -   "
0.01, 1.76921, 2.49908e-05, NaN, NaN, NaN, 0.105597, "- N/A -   "
0.02, 2.35895, 5.27583e-05, NaN, NaN, NaN, 0.114143, "- N/A -   "
0.03, 3.18458, 8.607931E-5, NaN, NaN, NaN, 0.11048, "- N/A -   "
0.04, 3.89227, 0.0001194, NaN, NaN, NaN, 0.104376, "- N/A -   "
0.05, 4.482, 0.000147168, NaN, NaN, NaN, 0.0982726, "- N/A -   "
0.06, 4.953794, 0.000174935, NaN, NaN, NaN, 0.09338949, "- N/A -   "
0.07, 5.66148, 0.000202703, NaN, NaN, NaN, 0.08850638, "- N/A -   "
0.08, 6.13327, 0.000227694, NaN, NaN, NaN, 0.084844, "- N/A -   "
0.09, 6.60506, 0.000249908, NaN, NaN, NaN, 0.08240249, "- N/A -   "
0.1, 7.07685, 0.000274898, NaN, NaN, NaN, 0.07874016, "- N/A -   "
0.11, 7.548638, 2.998892E-4, NaN, NaN, NaN, 0.0762986, "- N/A -   "
0.12, 8.020428, 3.221032E-4, NaN, NaN, NaN, 0.07263627, "- N/A -   "
0.13, 8.492218, 0.000347094, NaN, NaN, NaN, 0.0689739, "- N/A -   "
0.14, 8.964007, 0.000372085, NaN, NaN, NaN, 0.06653238, "- N/A -   "
0.15, 9.435798, 0.000397076, NaN, NaN, NaN, 0.06287005, "- N/A -   "
0.16, 10.0255, 0.000422066, NaN, NaN, NaN, 0.0592077, "- N/A -   "
0.17, 10.3794, 4.442803E-4, NaN, NaN, NaN, 0.0555454, "- N/A -   "
0.18, 10.8512, 4.664943E-4, NaN, NaN, NaN, 0.0531038, "- N/A -   "
0.19, 11.323, 4.887083E-4, NaN, NaN, NaN, 0.05066227, "- N/A -   "
0.2, 11.6768, 0.000510922, NaN, NaN, NaN, 0.0482207, "- N/A -   "
0.21, 12.0306, 0.00053036, NaN, NaN, NaN, 0.04699994, "- N/A -   "
0.22, 12.2665, 0.000549797, NaN, NaN, NaN, 0.04577916, "- N/A -   "
0.23, 12.7383, 0.000569234, NaN, NaN, NaN, 0.04577916, "- N/A -   "
0.24, 12.9742, 5.858946E-4, NaN, NaN, NaN, 0.0445584, "- N/A -   "
0.25, 13.3281, 6.053319E-4, NaN, NaN, NaN, 0.0433376, "- N/A -   "
0.26, 13.7999, 0.000624769, NaN, NaN, NaN, 0.0433376, "- N/A -   "
0.27, 14.0357, 6.442064E-4, NaN, NaN, NaN, 0.04211683, "- N/A -   "
0.28, 14.5075, 6.608669E-4, NaN, NaN, NaN, 0.04089605, "- N/A -   "
0.29, 14.7434, 0.000677527, NaN, NaN, NaN, 0.04089605, "- N/A -   "
0.3, 15.0973, 0.000694188, NaN, NaN, NaN, 0.04089605, "- N/A -   "
0.31, 15.4511, 7.136252E-4, NaN, NaN, NaN, 0.0396753, "- N/A -   "
0.32, 15.805, 0.000733062, NaN, NaN, NaN, 0.0396753, "- N/A -   "
0.33, 16.1588, 7.49723E-4, NaN, NaN, NaN, 0.0384545, "- N/A -   "
0.34, 16.3947, 7.691603E-4, NaN, NaN, NaN, 0.0384545, "- N/A -   "
0.35, 16.74854, 7.885975E-4, NaN, NaN, NaN, 0.0372337, "- N/A -   "
0.36, 17.1024, 8.080348E-4, NaN, NaN, NaN, 0.03601294, "- N/A -   "
0.37, 17.5742, 8.27472E-4, NaN, NaN, NaN, 0.0335714, "- N/A -   "
0.38, 17.8101, 8.469093E-4, NaN, NaN, NaN, 0.0335714, "- N/A -   "
0.39, 18.2819, 8.663466E-4, NaN, NaN, NaN, 0.03112983, "- N/A -   "
0.4, 18.5178, 8.857838E-4, NaN, NaN, NaN, 0.0299091, "- N/A -   "
0.41, 18.8716, 0.000902444, NaN, NaN, NaN, 0.0299091, "- N/A -   "
0.42, 19.1075, 9.218816E-4, NaN, NaN, NaN, 0.0299091, "- N/A -   "
0.43, 19.4613, 9.385421E-4, NaN, NaN, NaN, 0.0286883, "- N/A -   "
0.44, 19.6972, 9.552026E-4, NaN, NaN, NaN, 0.0299091, "- N/A -   "
0.45, 20.05107, 0.000971863, NaN, NaN, NaN, 0.0299091, "- N/A -   "
0.46, 20.287, 9.857469E-4, NaN, NaN, NaN, 0.0299091, "- N/A -   "
0.47, 20.6408, 9.996307E-4, NaN, NaN, NaN, 0.03112983, "- N/A -   "
0.65, 25.0049, 0.00126898, NaN, NaN, NaN, 0.04577916, "- N/A -   "
0.83, 30.4304, 0.00158553, NaN, NaN, NaN, 0.0372337, "- N/A -   "
1.01, 35.3842, 0.00191041, NaN, NaN, NaN, 0.0262467, "- N/A -   "
1.19, 39.5124, 0.002182527, NaN, NaN, NaN, 0.0396753, "- N/A -   "
1.37, 44.1124, 0.00246576, NaN, NaN, NaN, 0.04577916, "- N/A -   "
1.55, 49.5379, 0.002798966, NaN, NaN, NaN, 0.03112983, "- N/A -   "
1.73, 54.2558, 0.0030933, NaN, NaN, NaN, 0.0335714, "- N/A -   "
1.91, 58.7378, 0.003382084, NaN, NaN, NaN, 0.0384545, "- N/A -   "
2.09, 63.6916, 0.00368475, NaN, NaN, NaN, 0.0384545, "- N/A -   "
2.27, 68.40953, 0.003995746, NaN, NaN, NaN, 0.0335714, "- N/A -   "
2.45, 73.00948, 0.004298412, NaN, NaN, NaN, 0.0323506, "- N/A -   "
2.63, 77.13765, 0.004576087, NaN, NaN, NaN, 0.04211683, "- N/A -   "
2.81, 81.97349, 0.004884307, NaN, NaN, NaN, 0.0384545, "- N/A -   "
2.99, 86.57345, 0.005186972, NaN, NaN, NaN, 0.03601294, "- N/A -   "
3.17, 91.2913, 0.00549519, NaN, NaN, NaN, 0.0323506, "- N/A -   "
3.35, 95.5374, 0.00577842, NaN, NaN, NaN, 0.0396753, "- N/A -   "
3.53, 100.491, 0.00608109, NaN, NaN, NaN, 0.0396753, "- N/A -   "
3.71, 105.445, 0.00639486, NaN, NaN, NaN, 0.0335714, "- N/A -   "
3.89, 110.163, 0.006694749, NaN, NaN, NaN, 0.0335714, "- N/A -   "
4.07, 114.409, 0.006964094, NaN, NaN, NaN, 0.04699994, "- N/A -   "
4.25, 119.717, 0.007288974, NaN, NaN, NaN, 0.03601294, "- N/A -   "
4.43, 124.788, 0.00760275, NaN, NaN, NaN, 0.0299091, "- N/A -   "
4.61, 129.27, 0.007880422, NaN, NaN, NaN, 0.0396753, "- N/A -   "
4.79, 134.106, 0.008169204, NaN, NaN, NaN, 0.0445584, "- N/A -   "
4.97, 139.768, 0.008502414, NaN, NaN, NaN, 0.0299091, "- N/A -   "
5.15, 144.368, 0.008793973, NaN, NaN, NaN, 0.0335714, "- N/A -   "
5.33, 149.204, 0.009079979, NaN, NaN, NaN, 0.0396753, "- N/A -   "
5.51, 154.393, 0.009379867, NaN, NaN, NaN, 0.04089605, "- N/A -   "
5.69, 159.701, 0.00969364, NaN, NaN, NaN, 0.0335714, "- N/A -   "
5.87, 165.126, 0.009996306, NaN, NaN, NaN, 0.0323506, "- N/A -   "
6.05, 170.08, 0.0102795, NaN, NaN, NaN, 0.0396753, "- N/A -   "
6.23, 175.624, 0.0105905, NaN, NaN, NaN, 0.03601294, "- N/A -   "
6.41, 180.931, 0.0108932, NaN, NaN, NaN, 0.0335714, "- N/A -   "
6.59, 186.475, 0.0111959, NaN, NaN, NaN, 0.0335714, "- N/A -   "
6.77, 191.547, 0.0114763, NaN, NaN, NaN, 0.04089605, "- N/A -   "
6.95, 197.444, 0.0117845, NaN, NaN, NaN, 0.0384545, "- N/A -   "
7.13, 203.106, 0.01209, NaN, NaN, NaN, 0.0347922, "- N/A -   "
7.31, 209.003, 0.0123982, NaN, NaN, NaN, 0.03112983, "- N/A -   "
7.49, 214.1926, 0.0126675, NaN, NaN, NaN, 0.04577916, "- N/A -   "
7.67, 220.68, 0.0129952, NaN, NaN, NaN, 0.0335714, "- N/A -   "
7.85, 226.813, 0.0133062, NaN, NaN, NaN, 0.0286883, "- N/A -   "
8.03, 232.003, 0.0135811, NaN, NaN, NaN, 0.0384545, "- N/A -   "
8.21, 237.9, 0.0138727, NaN, NaN, NaN, 0.0445584, "- N/A -   "
8.39, 244.857, 0.0142086, NaN, NaN, NaN, 0.0286883, "- N/A -   "
8.57, 250.63, 0.0144891, NaN, NaN, NaN, 0.03601294, "- N/A -   "
8.75, 256.403, 0.0147723, NaN, NaN, NaN, 0.0433376, "- N/A -   "
8.93, 262.8839, 0.0150833, NaN, NaN, NaN, 0.0384545, "- N/A -   "
9.11, 269.482, 0.0153971, NaN, NaN, NaN, 0.0323506, "- N/A -   "
9.29, 275.8448, 0.0156998, NaN, NaN, NaN, 0.0323506, "- N/A -   "
9.47, 281.736, 0.0159747, NaN, NaN, NaN, 0.04211683, "- N/A -   "
9.65, 288.452, 0.01628565, NaN, NaN, NaN, 0.0384545, "- N/A -   "
9.83, 295.05, 0.0165966, NaN, NaN, NaN, 0.0335714, "- N/A -   "
10.01, 301.413, 0.0168882, NaN, NaN, NaN, 0.03601294, "- N/A -   "
10.19, 307.893, 0.0171853, NaN, NaN, NaN, 0.0372337, "- N/A -   "
10.37, 314.492, 0.017488, NaN, NaN, NaN, 0.03601294, "- N/A -   "
10.55, 321.09, 0.0177879, NaN, NaN, NaN, 0.03601294, "- N/A -   "
10.73, 327.688, 0.0180933, NaN, NaN, NaN, 0.0335714, "- N/A -   "
10.91, 333.697, 0.0183654, NaN, NaN, NaN, 0.04577916, "- N/A -   "
11.09, 341.238, 0.01869587, NaN, NaN, NaN, 0.0335714, "- N/A -   "
11.27, 348.072, 0.01900409, NaN, NaN, NaN, 0.0299091, "- N/A -   "
[...]
37.19, 1469.5, 0.0621937, NaN, NaN, NaN, 0.0347922, "- N/A -   "
37.21, 1470.33, 0.06222423, NaN, NaN, NaN, 0.0347922, "- N/A -   "
37.23, 1471.166, 0.0622576, NaN, NaN, NaN, 0.0347922, "- N/A -   "
37.25, 1471.88, 0.0622909, NaN, NaN, NaN, 0.0347922, "- N/A -   "
37.27, 1472.95, 0.06232697, NaN, NaN, NaN, 0.0347922, "- N/A -   "
37.29, 1473.79, 0.0623575, NaN, NaN, NaN, 0.0347922, "- N/A -   "
37.31, 1474.62, 0.0623936, NaN, NaN, NaN, 0.0347922, "- N/A -   "
37.33, 1475.46, 0.0624242, NaN, NaN, NaN, 0.0347922, "- N/A -   "
37.35, 1476.29, 0.0624547, NaN, NaN, NaN, 0.03601294, "- N/A -   "
37.37, 1476.89, 0.0624852, NaN, NaN, NaN, 0.0372337, "- N/A -   "
37.39, 1477.72, 0.06251579, NaN, NaN, NaN, 0.0396753, "- N/A -   "
37.41, 1478.44, 0.0625436, NaN, NaN, NaN, 0.04089605, "- N/A -   "
37.43, 1479.28, 0.0625741, NaN, NaN, NaN, 0.04211683, "- N/A -   "
37.45, 1480.11, 0.06260742, NaN, NaN, NaN, 0.04211683, "- N/A -   "
37.47, 1480.94, 0.06264352, NaN, NaN, NaN, 0.04089605, "- N/A -   "
37.49, 1481.9, 0.06267684, NaN, NaN, NaN, 0.04211683, "- N/A -   "
37.51, 1482.73, 0.06270739, NaN, NaN, NaN, 0.04211683, "- N/A -   "
37.53, 1483.57, 0.0627407, NaN, NaN, NaN, 0.0433376, "- N/A -   "
37.55, 1484.4, 0.06277125, NaN, NaN, NaN, 0.0433376, "- N/A -   "
37.57, 1485.48, 0.06281013, NaN, NaN, NaN, 0.04211683, "- N/A -   "
37.59, 1486.43, 0.06284345, NaN, NaN, NaN, 0.04089605, "- N/A -   "
37.61, 1487.265, 0.06287955, NaN, NaN, NaN, 0.04089605, "- N/A -   "
37.63, 1488.34, 0.06291287, NaN, NaN, NaN, 0.0396753, "- N/A -   "
37.65, 1489.17, 0.062949, NaN, NaN, NaN, 0.0384545, "- N/A -   "
37.67, 1490.25, 0.06299062, NaN, NaN, NaN, 0.0347922, "- N/A -   "
37.69, 1491.32, 0.06302949, NaN, NaN, NaN, 0.0323506, "- N/A -   "
37.71, 1492.15, 0.06306281, NaN, NaN, NaN, 0.0323506, "- N/A -   "
37.73, 1492.87, 0.06309336, NaN, NaN, NaN, 0.0335714, "- N/A -   "
37.75, 1493.7, 0.0631267, NaN, NaN, NaN, 0.0335714, "- N/A -   "
37.77, 1494.66, 0.06316, NaN, NaN, NaN, 0.0335714, "- N/A -   "
37.79, 1495.49, 0.06319054, NaN, NaN, NaN, 0.0347922, "- N/A -   "
37.81, 1496.209, 0.06322386, NaN, NaN, NaN, 0.0347922, "- N/A -   "
37.83, 1497.163, 0.06325996, NaN, NaN, NaN, 0.0335714, "- N/A -   "
37.85, 1498, 0.0632933, NaN, NaN, NaN, 0.0335714, "- N/A -   "
37.87, 1498.83, 0.0633266, NaN, NaN, NaN, 0.0347922, "- N/A -   "
37.89, 1499.91, 0.0633627, NaN, NaN, NaN, 0.0323506, "- N/A -   "
37.91, 1500.98, 0.0633988, NaN, NaN, NaN, 0.03112983, "- N/A -   "
37.93, 1501.81, 0.06343767, NaN, NaN, NaN, 0.0299091, "- N/A -   "
37.95, 1502.77, 0.063471, NaN, NaN, NaN, 0.0299091, "- N/A -   "
37.97, 1503.6, 0.06350154, NaN, NaN, NaN, 0.03112983, "- N/A -   "
37.99, 1504.44, 0.0635321, NaN, NaN, NaN, 0.0323506, "- N/A -   "
38.01, 1505.15, 0.0635626, NaN, NaN, NaN, 0.0323506, "- N/A -   "
38.03, 1505.99, 0.06359594, NaN, NaN, NaN, 0.0335714, "- N/A -   "
38.05, 1506.82, 0.06362371, NaN, NaN, NaN, 0.0347922, "- N/A -   "
38.07, 1507.42, 0.06365426, NaN, NaN, NaN, 0.0372337, "- N/A -   "
38.09, 1508.25, 0.06368203, NaN, NaN, NaN, 0.0384545, "- N/A -   "
38.11, 1508.85, 0.0637098, NaN, NaN, NaN, 0.04089605, "- N/A -   "
38.13, 1509.68, 0.0637376, NaN, NaN, NaN, 0.0433376, "- N/A -   "
38.15, 1510.28, 0.06376533, NaN, NaN, NaN, 0.04577916, "- N/A -   "
38.17, 1511.12, 0.06379587, NaN, NaN, NaN, 0.0482207, "- N/A -   "
38.19, 1511.831, 0.06382364, NaN, NaN, NaN, 0.0494415, "- N/A -   "
38.21, 1512.785, 0.06385974, NaN, NaN, NaN, 0.0482207, "- N/A -   "
38.23, 1513.62, 0.06389306, NaN, NaN, NaN, 0.0482207, "- N/A -   "
38.245, 1514.34, 0.0639236, NaN, NaN, NaN, 0.04699994, "- N/A -   "

File: Hamel_ForceTest_Bolt4_Test7.csv
Time, Load (lb), Position (in), AxialStrain (in), TransverseStrain (in), Auxiliary (), Control Out (V), Stress (psi)
0.0, 7.430691, 0.0, NaN, NaN, NaN, -0.006714277, "- N/A -   "
0.01, 7.430691, 0.0, NaN, NaN, NaN, -6.103888E-4, "- N/A -   "
0.02, 7.430691, 0.0, NaN, NaN, NaN, 0.006714277, "- N/A -   "
0.03, 7.430691, 0.0, NaN, NaN, NaN, 0.01525972, "- N/A -   "
0.04, 7.548638, 2.776752E-6, NaN, NaN, NaN, 0.0335714, "- N/A -   "
0.1, 8.492218, 0.000116624, NaN, NaN, NaN, 0.100714, "- N/A -   "
0.16, 10.0255, 0.000269345, NaN, NaN, NaN, 0.07751938, "- N/A -   "
0.22, 11.4409, 0.000397076, NaN, NaN, NaN, 0.0653116, "- N/A -   "
0.28, 12.6204, 5.164758E-4, NaN, NaN, NaN, 0.05676616, "- N/A -   "
0.34, 14.0357, 6.442064E-4, NaN, NaN, NaN, 0.04577916, "- N/A -   "
0.4, 15.3332, 0.000758053, NaN, NaN, NaN, 0.0384545, "- N/A -   "
0.46, 16.5126, 0.000860793, NaN, NaN, NaN, 0.0384545, "- N/A -   "
0.52, 17.6921, 0.000969086, NaN, NaN, NaN, 0.0335714, "- N/A -   "
0.58, 18.9895, 0.00108016, NaN, NaN, NaN, 0.0286883, "- N/A -   "
0.64, 19.9331, 0.001174566, NaN, NaN, NaN, 0.03112983, "- N/A -   "
0.7, 21.1126, 0.0012662, NaN, NaN, NaN, 0.0347922, "- N/A -   "
0.76, 21.93823, 0.0013495, NaN, NaN, NaN, 0.0433376, "- N/A -   "
0.82, 22.88181, 0.00143836, NaN, NaN, NaN, 0.04699994, "- N/A -   "
0.88, 24.0613, 0.0015411, NaN, NaN, NaN, 0.04699994, "- N/A -   "
0.94, 25.3587, 0.00165217, NaN, NaN, NaN, 0.04089605, "- N/A -   "
1, 26.5382, 0.00176601, NaN, NaN, NaN, 0.0347922, "- N/A -   "
1.06, 27.7177, 0.00187153, NaN, NaN, NaN, 0.0323506, "- N/A -   "
1.12, 28.89713, 0.00197705, NaN, NaN, NaN, 0.0299091, "- N/A -   "
1.18, 29.9587, 0.002082564, NaN, NaN, NaN, 0.0274675, "- N/A -   "
1.24, 31.0202, 0.00217975, NaN, NaN, NaN, 0.0286883, "- N/A -   "
1.3, 31.9638, 0.002271383, NaN, NaN, NaN, 0.0335714, "- N/A -   "
1.36, 32.7894, 0.00235746, NaN, NaN, NaN, 0.0384545, "- N/A -   "
1.42, 33.8509, 0.00244632, NaN, NaN, NaN, 0.0433376, "- N/A -   "
1.48, 34.9125, 0.002549058, NaN, NaN, NaN, 0.0433376, "- N/A -   "
1.54, 35.97398, 0.00264347, NaN, NaN, NaN, 0.0445584, "- N/A -   "
1.6, 37.0355, 0.00274621, NaN, NaN, NaN, 0.0445584, "- N/A -   "
1.66, 38.3329, 0.00285728, NaN, NaN, NaN, 0.0384545, "- N/A -   "
1.72, 39.6304, 0.0029739, NaN, NaN, NaN, 0.03112983, "- N/A -   "
1.78, 40.8098, 0.00307664, NaN, NaN, NaN, 0.0299091, "- N/A -   "
1.84, 41.9893, 0.0031766, NaN, NaN, NaN, 0.0299091, "- N/A -   "
1.9, 43.1688, 0.00327101, NaN, NaN, NaN, 0.0323506, "- N/A -   "
1.96, 44.2303, 0.00336265, NaN, NaN, NaN, 0.03601294, "- N/A -   "
2.02, 45.5277, 0.00346539, NaN, NaN, NaN, 0.03601294, "- N/A -   "
2.08, 46.7072, 0.00355424, NaN, NaN, NaN, 0.0396753, "- N/A -   "
2.14, 47.7687, 0.00364865, NaN, NaN, NaN, 0.0433376, "- N/A -   "
2.2, 48.9482, 0.00374306, NaN, NaN, NaN, 0.0445584, "- N/A -   "
2.26, 50.2456, 0.0038458, NaN, NaN, NaN, 0.0433376, "- N/A -   "
2.32, 51.89689, 0.003965202, NaN, NaN, NaN, 0.0347922, "- N/A -   "
2.38, 53.3123, 0.00407905, NaN, NaN, NaN, 0.0299091, "- N/A -   "
2.44, 54.3738, 0.004176235, NaN, NaN, NaN, 0.0299091, "- N/A -   "
2.5, 55.43531, 0.004265091, NaN, NaN, NaN, 0.0347922, "- N/A -   "
2.56, 56.73273, 0.004362277, NaN, NaN, NaN, 0.03601294, "- N/A -   "
2.62, 58.1481, 0.004476124, NaN, NaN, NaN, 0.03112983, "- N/A -   "
2.68, 59.3276, 0.004567757, NaN, NaN, NaN, 0.0335714, "- N/A -   "
2.74, 60.3891, 0.00465939, NaN, NaN, NaN, 0.0372337, "- N/A -   "
2.8, 61.56858, 0.004756576, NaN, NaN, NaN, 0.0396753, "- N/A -   "
2.86, 62.98395, 0.00485099, NaN, NaN, NaN, 0.04089605, "- N/A -   "
2.92, 64.3993, 0.00495373, NaN, NaN, NaN, 0.0396753, "- N/A -   "
2.98, 65.81469, 0.00505924, NaN, NaN, NaN, 0.0372337, "- N/A -   "
3.04, 67.34801, 0.00516198, NaN, NaN, NaN, 0.03601294, "- N/A -   "
3.1, 68.7634, 0.005261945, NaN, NaN, NaN, 0.03601294, "- N/A -   "
3.16, 70.29669, 0.00536746, NaN, NaN, NaN, 0.0335714, "- N/A -   "
3.22, 71.71206, 0.00547298, NaN, NaN, NaN, 0.0323506, "- N/A -   "
3.28, 73.2454, 0.00557572, NaN, NaN, NaN, 0.03112983, "- N/A -   "
3.34, 74.66075, 0.00566457, NaN, NaN, NaN, 0.0347922, "- N/A -   "
3.4, 75.95817, 0.00576454, NaN, NaN, NaN, 0.0347922, "- N/A -   "
3.46, 77.13765, 0.005858946, NaN, NaN, NaN, 0.0372337, "- N/A -   "
3.52, 78.55301, 0.00595336, NaN, NaN, NaN, 0.0396753, "- N/A -   "
3.58, 79.73249, 0.00604777, NaN, NaN, NaN, 0.04211683, "- N/A -   "
3.64, 81.14786, 0.00614773, NaN, NaN, NaN, 0.0433376, "- N/A -   "
3.7, 82.56323, 0.006256022, NaN, NaN, NaN, 0.0396753, "- N/A -   "
3.76, 84.21449, 0.00636987, NaN, NaN, NaN, 0.0335714, "- N/A -   "
3.82, 85.51192, 0.006469832, NaN, NaN, NaN, 0.0335714, "- N/A -   "
3.88, 86.80934, 0.006567018, NaN, NaN, NaN, 0.0347922, "- N/A -   "
3.94, 88.10676, 0.00666698, NaN, NaN, NaN, 0.0347922, "- N/A -   "
4, 89.6401, 0.00678083, NaN, NaN, NaN, 0.0286883, "- N/A -   "
4.06, 90.81956, 0.006875238, NaN, NaN, NaN, 0.03112983, "- N/A -   "
4.12, 91.88108, 0.006961317, NaN, NaN, NaN, 0.0372337, "- N/A -   "
4.18, 93.0606, 0.007050173, NaN, NaN, NaN, 0.04211683, "- N/A -   "
4.24, 94.24, 0.007141806, NaN, NaN, NaN, 0.04577916, "- N/A -   "
4.3, 95.7733, 0.007244546, NaN, NaN, NaN, 0.04577916, "- N/A -   "
4.36, 97.30666, 0.00735839, NaN, NaN, NaN, 0.0396753, "- N/A -   "
4.42, 98.83998, 0.00746669, NaN, NaN, NaN, 0.0347922, "- N/A -   "
4.48, 100.137, 0.00756387, NaN, NaN, NaN, 0.03601294, "- N/A -   "
4.54, 101.671, 0.00767494, NaN, NaN, NaN, 0.0323506, "- N/A -   "
4.6, 103.204, 0.007780459, NaN, NaN, NaN, 0.0299091, "- N/A -   "
4.66, 104.619, 0.007883199, NaN, NaN, NaN, 0.0274675, "- N/A -   "
4.72, 105.917, 0.007974831, NaN, NaN, NaN, 0.03112983, "- N/A -   "
4.78, 106.978, 0.008058134, NaN, NaN, NaN, 0.0384545, "- N/A -   "
4.84, 108.276, 0.008149767, NaN, NaN, NaN, 0.0433376, "- N/A -   "
4.9, 109.8091, 0.008246954, NaN, NaN, NaN, 0.0433376, "- N/A -   "
4.96, 111.224, 0.008346915, NaN, NaN, NaN, 0.0433376, "- N/A -   "
5.02, 112.758, 0.008452433, NaN, NaN, NaN, 0.04089605, "- N/A -   "
5.08, 114.409, 0.00856073, NaN, NaN, NaN, 0.0384545, "- N/A -   "
5.14, 116.178, 0.008680126, NaN, NaN, NaN, 0.0286883, "- N/A -   "
5.2, 117.712, 0.00878287, NaN, NaN, NaN, 0.0286883, "- N/A -   "
5.26, 119.009, 0.008874499, NaN, NaN, NaN, 0.03112983, "- N/A -   "
5.32, 120.424, 0.008966132, NaN, NaN, NaN, 0.03601294, "- N/A -   "
5.38, 121.722, 0.009063318, NaN, NaN, NaN, 0.0372337, "- N/A -   "
5.44, 123.609, 0.009168834, NaN, NaN, NaN, 0.0347922, "- N/A -   "
5.5, 124.788, 0.00925769, NaN, NaN, NaN, 0.0384545, "- N/A -   "
5.56, 126.086, 0.00934377, NaN, NaN, NaN, 0.0445584, "- N/A -   "
5.62, 127.737, 0.009443734, NaN, NaN, NaN, 0.0445584, "- N/A -   "
5.68, 129.27, 0.009554803, NaN, NaN, NaN, 0.04089605, "- N/A -   "
5.74, 131.1576, 0.00966865, NaN, NaN, NaN, 0.0335714, "- N/A -   "
5.8, 132.9268, 0.009776942, NaN, NaN, NaN, 0.0299091, "- N/A -   "
5.86, 134.224, 0.009868576, NaN, NaN, NaN, 0.0335714, "- N/A -   "
5.92, 135.758, 0.00996576, NaN, NaN, NaN, 0.03601294, "- N/A -   "
5.98, 137.291, 0.0100629, NaN, NaN, NaN, 0.03601294, "- N/A -   "
6.04, 139.06, 0.010174, NaN, NaN, NaN, 0.03112983, "- N/A -   "
6.1, 140.475, 0.0102684, NaN, NaN, NaN, 0.0335714, "- N/A -   "
6.16, 141.891, 0.0103628, NaN, NaN, NaN, 0.0372337, "- N/A -   "
6.22, 143.424, 0.0104517, NaN, NaN, NaN, 0.04089605, "- N/A -   "
[...]
34.77, 1291.93, 0.0580536, NaN, NaN, NaN, 0.0335714, "- N/A -   "
34.85, 1295.27, 0.0581785, NaN, NaN, NaN, 0.03601294, "- N/A -   "
34.93, 1298.13, 0.0582924, NaN, NaN, NaN, 0.0445584, "- N/A -   "
35.01, 1301.83, 0.0584312, NaN, NaN, NaN, 0.0433376, "- N/A -   "
35.09, 1306, 0.0585784, NaN, NaN, NaN, 0.0372337, "- N/A -   "
35.17, 1309.94, 0.05872275, NaN, NaN, NaN, 0.0323506, "- N/A -   "
35.25, 1313.63, 0.05886159, NaN, NaN, NaN, 0.0286883, "- N/A -   "
35.33, 1317.45, 0.05900043, NaN, NaN, NaN, 0.0286883, "- N/A -   "
35.41, 1320.67, 0.0591254, NaN, NaN, NaN, 0.0323506, "- N/A -   "
35.49, 1323.65, 0.05923645, NaN, NaN, NaN, 0.04089605, "- N/A -   "
35.57, 1326.87, 0.05935585, NaN, NaN, NaN, 0.04699994, "- N/A -   "
35.65, 1330.568, 0.05949191, NaN, NaN, NaN, 0.04577916, "- N/A -   "
35.73, 1334.5, 0.0596363, NaN, NaN, NaN, 0.04211683, "- N/A -   "
35.81, 1338.92, 0.0597946, NaN, NaN, NaN, 0.0299091, "- N/A -   "
35.89, 1342.49, 0.0599279, NaN, NaN, NaN, 0.0299091, "- N/A -   "
35.97, 1345.713, 0.06005559, NaN, NaN, NaN, 0.0335714, "- N/A -   "
36.05, 1349.17, 0.0601805, NaN, NaN, NaN, 0.03601294, "- N/A -   "
36.13, 1352.63, 0.0603055, NaN, NaN, NaN, 0.0396753, "- N/A -   "
36.21, 1356.088, 0.060436, NaN, NaN, NaN, 0.04089605, "- N/A -   "
36.29, 1359.31, 0.06056374, NaN, NaN, NaN, 0.0445584, "- N/A -   "
36.37, 1363, 0.0606998, NaN, NaN, NaN, 0.04211683, "- N/A -   "
36.45, 1367.42, 0.0608553, NaN, NaN, NaN, 0.0323506, "- N/A -   "
36.53, 1370.99, 0.0609914, NaN, NaN, NaN, 0.0323506, "- N/A -   "
36.61, 1374.33, 0.0611135, NaN, NaN, NaN, 0.03601294, "- N/A -   "
36.69, 1377.911, 0.0612496, NaN, NaN, NaN, 0.0347922, "- N/A -   "
36.77, 1381.727, 0.06139121, NaN, NaN, NaN, 0.0323506, "- N/A -   "
36.85, 1384.83, 0.0615078, NaN, NaN, NaN, 0.0384545, "- N/A -   "
36.93, 1387.93, 0.0616272, NaN, NaN, NaN, 0.0445584, "- N/A -   "
37.01, 1391.625, 0.0617633, NaN, NaN, NaN, 0.0433376, "- N/A -   "
37.09, 1395.44, 0.0619049, NaN, NaN, NaN, 0.0396753, "- N/A -   "
37.17, 1399.26, 0.0620493, NaN, NaN, NaN, 0.03601294, "- N/A -   "
37.25, 1402.954, 0.0621881, NaN, NaN, NaN, 0.0323506, "- N/A -   "
37.33, 1406.53, 0.0623186, NaN, NaN, NaN, 0.0335714, "- N/A -   "
37.41, 1410.109, 0.0624547, NaN, NaN, NaN, 0.0323506, "- N/A -   "
37.49, 1413.69, 0.06258799, NaN, NaN, NaN, 0.0323506, "- N/A -   "
37.57, 1416.79, 0.0627102, NaN, NaN, NaN, 0.0372337, "- N/A -   "
37.65, 1420.13, 0.06283512, NaN, NaN, NaN, 0.04089605, "- N/A -   "
37.73, 1423.58, 0.06296563, NaN, NaN, NaN, 0.0433376, "- N/A -   "
37.81, 1427.4, 0.06310169, NaN, NaN, NaN, 0.04089605, "- N/A -   "
37.89, 1431.46, 0.06325441, NaN, NaN, NaN, 0.0323506, "- N/A -   "
37.97, 1435.15, 0.06339325, NaN, NaN, NaN, 0.03112983, "- N/A -   "
38.05, 1438.491, 0.0635238, NaN, NaN, NaN, 0.03112983, "- N/A -   "
38.13, 1442.19, 0.06366537, NaN, NaN, NaN, 0.0286883, "- N/A -   "
38.21, 1445.29, 0.06378754, NaN, NaN, NaN, 0.0323506, "- N/A -   "
38.29, 1448.27, 0.0639014, NaN, NaN, NaN, 0.04089605, "- N/A -   "
38.37, 1451.37, 0.06401801, NaN, NaN, NaN, 0.0494415, "- N/A -   "
38.45, 1455.07, 0.06415963, NaN, NaN, NaN, 0.0445584, "- N/A -   "
38.53, 1459.36, 0.06431513, NaN, NaN, NaN, 0.03601294, "- N/A -   "
38.61, 1463.18, 0.0644567, NaN, NaN, NaN, 0.03112983, "- N/A -   "
38.69, 1466.87, 0.06460114, NaN, NaN, NaN, 0.0274675, "- N/A -   "
38.77, 1470.45, 0.06472609, NaN, NaN, NaN, 0.0299091, "- N/A -   "
38.85, 1473.67, 0.064851, NaN, NaN, NaN, 0.0335714, "- N/A -   "
38.93, 1476.53, 0.06496489, NaN, NaN, NaN, 0.0433376, "- N/A -   "
38.99, 1479.04, 0.0650593, NaN, NaN, NaN, 0.04577916, "- N/A -   "