Folder: DigitalTwins-Machine-Learning/2_Tensile_Data (part 36)

File: Hamel_ForceTest_Bolt9_Test5.csv
Time, Load (lb), Position (in), AxialStrain (in), TransverseStrain (in), Auxiliary (), Control Out (V), Stress (psi)
0.0, 1.53332, 0.0, NaN, NaN, NaN, 0.100714, "- N/A -   "
0.01, 2.005107, 2.2214e-05, NaN, NaN, NaN, 0.1092596, "- N/A -   "
0.02, 2.59484, 5.27583e-05, NaN, NaN, NaN, 0.112922, "- N/A -   "
0.03, 3.18458, 8.33026e-05, NaN, NaN, NaN, 0.106818, "- N/A -   "
0.04, 3.774319, 0.000113847, NaN, NaN, NaN, 0.100714, "- N/A -   "
0.05, 4.36406, 0.000144391, NaN, NaN, NaN, 0.09461027, "- N/A -   "
0.06, 4.83585, 0.000172159, NaN, NaN, NaN, 0.0897272, "- N/A -   "
0.07, 5.425584, 0.000199926, NaN, NaN, NaN, 0.084844, "- N/A -   "
0.08, 5.897373, 0.000227694, NaN, NaN, NaN, 0.0799609, "- N/A -   "
0.09, 6.487111, 0.000255461, NaN, NaN, NaN, 0.0762986, "- N/A -   "
0.1, 6.9589, 0.000280452, NaN, NaN, NaN, 0.07141549, "- N/A -   "
0.11, 7.430691, 0.000308219, NaN, NaN, NaN, 0.06653238, "- N/A -   "
0.12, 8.020428, 0.000335987, NaN, NaN, NaN, 0.06287005, "- N/A -   "
0.13, 8.492218, 0.000358201, NaN, NaN, NaN, 0.0592077, "- N/A -   "
0.14, 8.964007, 0.000383192, NaN, NaN, NaN, 0.0555454, "- N/A -   "
0.15, 9.31785, 4.081825E-4, NaN, NaN, NaN, 0.0531038, "- N/A -   "
0.16, 9.78964, 4.276198E-4, NaN, NaN, NaN, 0.05066227, "- N/A -   "
0.17, 10.26143, 0.000449834, NaN, NaN, NaN, 0.0482207, "- N/A -   "
0.18, 10.6153, 4.720478E-4, NaN, NaN, NaN, 0.04577916, "- N/A -   "
0.19, 10.8512, 0.000491485, NaN, NaN, NaN, 0.0445584, "- N/A -   "
0.2, 11.4409, 0.000510922, NaN, NaN, NaN, 0.0433376, "- N/A -   "
0.21, 11.6768, 0.00053036, NaN, NaN, NaN, 0.0433376, "- N/A -   "
0.22, 12.0306, 5.470201E-4, NaN, NaN, NaN, 0.04211683, "- N/A -   "
0.23, 12.2665, 5.664574E-4, NaN, NaN, NaN, 0.04089605, "- N/A -   "
0.24, 12.7383, 5.858946E-4, NaN, NaN, NaN, 0.0396753, "- N/A -   "
0.25, 13.09217, 6.053319E-4, NaN, NaN, NaN, 0.0384545, "- N/A -   "
0.26, 13.446, 0.000624769, NaN, NaN, NaN, 0.0372337, "- N/A -   "
0.27, 13.7999, 6.442064E-4, NaN, NaN, NaN, 0.03601294, "- N/A -   "
0.28, 14.1537, 6.636437E-4, NaN, NaN, NaN, 0.0347922, "- N/A -   "
0.29, 14.3896, 6.830809E-4, NaN, NaN, NaN, 0.0347922, "- N/A -   "
0.3, 14.7434, 6.997415E-4, NaN, NaN, NaN, 0.0335714, "- N/A -   "
0.31, 15.0973, 0.000716402, NaN, NaN, NaN, 0.0335714, "- N/A -   "
0.32, 15.4511, 0.000733062, NaN, NaN, NaN, 0.0335714, "- N/A -   "
0.33, 15.805, 0.0007525, NaN, NaN, NaN, 0.0335714, "- N/A -   "
0.34, 16.0409, 7.691603E-4, NaN, NaN, NaN, 0.0323506, "- N/A -   "
0.35, 16.3947, 0.000785821, NaN, NaN, NaN, 0.0335714, "- N/A -   "
0.36, 16.6306, 0.000802481, NaN, NaN, NaN, 0.0335714, "- N/A -   "
0.37, 16.86649, 8.16365E-4, NaN, NaN, NaN, 0.0335714, "- N/A -   "
0.38, 17.1024, 8.358023E-4, NaN, NaN, NaN, 0.0335714, "- N/A -   "
0.39, 17.4562, 8.524628E-4, NaN, NaN, NaN, 0.0323506, "- N/A -   "
0.4, 17.8101, 8.691233E-4, NaN, NaN, NaN, 0.0335714, "- N/A -   "
0.41, 18.046, 8.830071E-4, NaN, NaN, NaN, 0.0335714, "- N/A -   "
0.42, 18.2819, 8.968908E-4, NaN, NaN, NaN, 0.0347922, "- N/A -   "
0.46, 19.2254, 9.524259E-4, NaN, NaN, NaN, 0.0396753, "- N/A -   "
0.5, 20.169, 0.00101074, NaN, NaN, NaN, 0.0433376, "- N/A -   "
0.54, 21.1126, 0.00107183, NaN, NaN, NaN, 0.04699994, "- N/A -   "
0.58, 22.29207, 0.00113847, NaN, NaN, NaN, 0.04699994, "- N/A -   "
0.62, 23.3536, 0.00120789, NaN, NaN, NaN, 0.0445584, "- N/A -   "
0.66, 24.769, 0.00128564, NaN, NaN, NaN, 0.0396753, "- N/A -   "
0.7, 25.8305, 0.00135783, NaN, NaN, NaN, 0.0372337, "- N/A -   "
0.74, 27.1279, 0.0014328, NaN, NaN, NaN, 0.0335714, "- N/A -   "
0.78, 28.1894, 0.001499446, NaN, NaN, NaN, 0.0335714, "- N/A -   "
0.82, 29.251, 0.00156886, NaN, NaN, NaN, 0.0323506, "- N/A -   "
0.86, 30.5484, 0.00164384, NaN, NaN, NaN, 0.0286883, "- N/A -   "
0.9, 31.6099, 0.00171326, NaN, NaN, NaN, 0.0274675, "- N/A -   "
0.94, 32.67145, 0.00177712, NaN, NaN, NaN, 0.0299091, "- N/A -   "
0.98, 33.49708, 0.00183821, NaN, NaN, NaN, 0.03112983, "- N/A -   "
1.02, 34.4407, 0.0018993, NaN, NaN, NaN, 0.0347922, "- N/A -   "
1.06, 35.50219, 0.00196039, NaN, NaN, NaN, 0.03601294, "- N/A -   "
1.1, 36.32782, 0.0020187, NaN, NaN, NaN, 0.0396753, "- N/A -   "
1.14, 37.15345, 0.00207701, NaN, NaN, NaN, 0.0433376, "- N/A -   "
1.18, 38.215, 0.002138099, NaN, NaN, NaN, 0.04577916, "- N/A -   "
1.22, 39.2765, 0.002204741, NaN, NaN, NaN, 0.04577916, "- N/A -   "
1.26, 40.456, 0.002271383, NaN, NaN, NaN, 0.04577916, "- N/A -   "
1.3, 41.51751, 0.002340802, NaN, NaN, NaN, 0.04577916, "- N/A -   "
1.34, 42.697, 0.002413, NaN, NaN, NaN, 0.0433376, "- N/A -   "
1.38, 43.87646, 0.002485193, NaN, NaN, NaN, 0.0396753, "- N/A -   "
1.42, 45.17388, 0.00256572, NaN, NaN, NaN, 0.0335714, "- N/A -   "
1.46, 46.4713, 0.00264347, NaN, NaN, NaN, 0.0286883, "- N/A -   "
1.5, 47.4149, 0.00271011, NaN, NaN, NaN, 0.0286883, "- N/A -   "
1.54, 48.47641, 0.00277675, NaN, NaN, NaN, 0.0286883, "- N/A -   "
1.58, 49.6559, 0.00284062, NaN, NaN, NaN, 0.0299091, "- N/A -   "
1.62, 50.5995, 0.00290448, NaN, NaN, NaN, 0.0323506, "- N/A -   "
1.66, 51.66099, 0.00296279, NaN, NaN, NaN, 0.0347922, "- N/A -   "
1.7, 52.6046, 0.00302388, NaN, NaN, NaN, 0.0372337, "- N/A -   "
1.74, 53.6661, 0.00309052, NaN, NaN, NaN, 0.0372337, "- N/A -   "
1.78, 54.8456, 0.003157167, NaN, NaN, NaN, 0.0372337, "- N/A -   "
1.82, 55.9071, 0.00322103, NaN, NaN, NaN, 0.0384545, "- N/A -   "
1.86, 56.85068, 0.00328212, NaN, NaN, NaN, 0.04089605, "- N/A -   "
1.9, 57.91221, 0.00334321, NaN, NaN, NaN, 0.0433376, "- N/A -   "
1.94, 58.9737, 0.0034043, NaN, NaN, NaN, 0.04577916, "- N/A -   "
1.98, 60.27116, 0.00348205, NaN, NaN, NaN, 0.04211683, "- N/A -   "
2.02, 61.56858, 0.00355702, NaN, NaN, NaN, 0.0372337, "- N/A -   "
2.06, 62.98395, 0.00362921, NaN, NaN, NaN, 0.0347922, "- N/A -   "
2.1, 64.16342, 0.00370696, NaN, NaN, NaN, 0.03112983, "- N/A -   "
2.14, 65.22495, 0.003773606, NaN, NaN, NaN, 0.0299091, "- N/A -   "
2.18, 66.2865, 0.00383469, NaN, NaN, NaN, 0.0335714, "- N/A -   "
2.22, 67.46596, 0.00389856, NaN, NaN, NaN, 0.0347922, "- N/A -   "
2.26, 68.52748, 0.00395687, NaN, NaN, NaN, 0.0372337, "- N/A -   "
2.3, 69.8249, 0.00402907, NaN, NaN, NaN, 0.0347922, "- N/A -   "
2.34, 71.12233, 0.004104039, NaN, NaN, NaN, 0.03112983, "- N/A -   "
2.38, 72.3018, 0.0041679, NaN, NaN, NaN, 0.0323506, "- N/A -   "
2.42, 73.36333, 0.004226216, NaN, NaN, NaN, 0.03601294, "- N/A -   "
2.46, 74.3069, 0.00429008, NaN, NaN, NaN, 0.0372337, "- N/A -   "
2.5, 75.36844, 0.00435117, NaN, NaN, NaN, 0.04089605, "- N/A -   "
2.54, 76.5479, 0.00441504, NaN, NaN, NaN, 0.04211683, "- N/A -   "
2.58, 77.72738, 0.004484454, NaN, NaN, NaN, 0.0396753, "- N/A -   "
2.62, 78.90686, 0.004553873, NaN, NaN, NaN, 0.0396753, "- N/A -   "
2.66, 80.20428, 0.004620515, NaN, NaN, NaN, 0.0396753, "- N/A -   "
2.7, 81.38376, 0.004687157, NaN, NaN, NaN, 0.0384545, "- N/A -   "
2.74, 82.68118, 0.004756576, NaN, NaN, NaN, 0.0372337, "- N/A -   "
2.78, 83.86065, 0.004825995, NaN, NaN, NaN, 0.0372337, "- N/A -   "
2.82, 85.04012, 0.00488986, NaN, NaN, NaN, 0.0372337, "- N/A -   "
2.86, 86.33755, 0.00496206, NaN, NaN, NaN, 0.03601294, "- N/A -   "
2.9, 87.75292, 0.005034251, NaN, NaN, NaN, 0.0323506, "- N/A -   "
2.94, 88.9324, 0.00510367, NaN, NaN, NaN, 0.03112983, "- N/A -   "
2.98, 90.11186, 0.005167535, NaN, NaN, NaN, 0.0323506, "- N/A -   "
3.02, 91.2913, 0.005234177, NaN, NaN, NaN, 0.0323506, "- N/A -   "
[...]
29.49, 1160.99, 0.049354, NaN, NaN, NaN, 0.0323506, "- N/A -   "
29.53, 1162.66, 0.0494123, NaN, NaN, NaN, 0.03601294, "- N/A -   "
29.57, 1164.33, 0.0494762, NaN, NaN, NaN, 0.03601294, "- N/A -   "
29.61, 1166.358, 0.04954836, NaN, NaN, NaN, 0.0335714, "- N/A -   "
29.65, 1168.39, 0.0496233, NaN, NaN, NaN, 0.0299091, "- N/A -   "
29.69, 1170.17, 0.0496872, NaN, NaN, NaN, 0.03112983, "- N/A -   "
29.73, 1171.61, 0.04974551, NaN, NaN, NaN, 0.0347922, "- N/A -   "
29.77, 1173.04, 0.0498038, NaN, NaN, NaN, 0.0396753, "- N/A -   "
29.81, 1174.59, 0.04986213, NaN, NaN, NaN, 0.04211683, "- N/A -   "
29.85, 1176.49, 0.0499316, NaN, NaN, NaN, 0.04089605, "- N/A -   "
29.89, 1178.4, 0.0500037, NaN, NaN, NaN, 0.0396753, "- N/A -   "
29.93, 1180.072, 0.05007039, NaN, NaN, NaN, 0.0396753, "- N/A -   "
29.97, 1181.98, 0.05013703, NaN, NaN, NaN, 0.0396753, "- N/A -   "
30.01, 1183.77, 0.0502037, NaN, NaN, NaN, 0.0384545, "- N/A -   "
30.05, 1185.56, 0.0502703, NaN, NaN, NaN, 0.0384545, "- N/A -   "
30.09, 1187.47, 0.0503397, NaN, NaN, NaN, 0.0384545, "- N/A -   "
30.13, 1189.25, 0.0504092, NaN, NaN, NaN, 0.03601294, "- N/A -   "
30.17, 1191.16, 0.05048135, NaN, NaN, NaN, 0.0347922, "- N/A -   "
30.21, 1193.19, 0.05055077, NaN, NaN, NaN, 0.0323506, "- N/A -   "
30.25, 1195.1, 0.05061741, NaN, NaN, NaN, 0.0323506, "- N/A -   "
30.29, 1196.77, 0.05068405, NaN, NaN, NaN, 0.0335714, "- N/A -   "
30.33, 1198.556, 0.05075347, NaN, NaN, NaN, 0.0323506, "- N/A -   "
30.37, 1200.34, 0.0508173, NaN, NaN, NaN, 0.0323506, "- N/A -   "
30.41, 1202.01, 0.05088398, NaN, NaN, NaN, 0.0323506, "- N/A -   "
30.45, 1203.68, 0.05094784, NaN, NaN, NaN, 0.0335714, "- N/A -   "
30.49, 1205.23, 0.0510062, NaN, NaN, NaN, 0.0372337, "- N/A -   "
30.53, 1206.78, 0.05107002, NaN, NaN, NaN, 0.0396753, "- N/A -   "
30.57, 1208.454, 0.0511311, NaN, NaN, NaN, 0.04089605, "- N/A -   "
30.61, 1210, 0.0511894, NaN, NaN, NaN, 0.0445584, "- N/A -   "
30.65, 1211.91, 0.05125884, NaN, NaN, NaN, 0.0433376, "- N/A -   "
30.69, 1213.701, 0.0513283, NaN, NaN, NaN, 0.0433376, "- N/A -   "
30.73, 1215.97, 0.05140601, NaN, NaN, NaN, 0.0384545, "- N/A -   "
30.77, 1218.11, 0.0514865, NaN, NaN, NaN, 0.0335714, "- N/A -   "
30.81, 1219.9, 0.05155595, NaN, NaN, NaN, 0.03112983, "- N/A -   "
30.85, 1221.57, 0.05161982, NaN, NaN, NaN, 0.0323506, "- N/A -   "
30.89, 1223.48, 0.0516865, NaN, NaN, NaN, 0.0323506, "- N/A -   "
30.93, 1225.03, 0.0517503, NaN, NaN, NaN, 0.0347922, "- N/A -   "
30.97, 1226.938, 0.05181974, NaN, NaN, NaN, 0.0323506, "- N/A -   "
31.01, 1228.85, 0.0518947, NaN, NaN, NaN, 0.0299091, "- N/A -   "
31.05, 1230.52, 0.0519558, NaN, NaN, NaN, 0.03112983, "- N/A -   "
31.09, 1232.3, 0.0520224, NaN, NaN, NaN, 0.03112983, "- N/A -   "
31.13, 1233.62, 0.052078, NaN, NaN, NaN, 0.03601294, "- N/A -   "
31.17, 1235.05, 0.052128, NaN, NaN, NaN, 0.0433376, "- N/A -   "
31.21, 1236.6, 0.0521891, NaN, NaN, NaN, 0.04577916, "- N/A -   "
31.25, 1238.267, 0.05225292, NaN, NaN, NaN, 0.04699994, "- N/A -   "
31.29, 1239.94, 0.05231678, NaN, NaN, NaN, 0.0494415, "- N/A -   "
31.33, 1241.96, 0.0523918, NaN, NaN, NaN, 0.0445584, "- N/A -   "
31.37, 1243.99, 0.0524695, NaN, NaN, NaN, 0.04089605, "- N/A -   "
31.41, 1246.02, 0.0525389, NaN, NaN, NaN, 0.0384545, "- N/A -   "
31.45, 1247.93, 0.0526139, NaN, NaN, NaN, 0.0347922, "- N/A -   "
31.49, 1249.72, 0.0526805, NaN, NaN, NaN, 0.0347922, "- N/A -   "
31.53, 1251.27, 0.0527444, NaN, NaN, NaN, 0.03601294, "- N/A -   "
31.57, 1253.412, 0.0528166, NaN, NaN, NaN, 0.0335714, "- N/A -   "
31.61, 1255.08, 0.052886, NaN, NaN, NaN, 0.0323506, "- N/A -   "
31.625, 1255.68, 0.052911, NaN, NaN, NaN, 0.0323506, "- N/A -   "

File: Hamel_ForceTest_Bolt9_Test6.csv
Time, Load (lb), Position (in), AxialStrain (in), TransverseStrain (in), Auxiliary (), Control Out (V), Stress (psi)
0.0, 15.0973, 0.0, NaN, NaN, NaN, -0.006714277, "- N/A -   "
0.01, 15.0973, 2.776752E-6, NaN, NaN, NaN, -6.103888E-4, "- N/A -   "
0.02, 15.0973, 2.776752E-6, NaN, NaN, NaN, 0.006714277, "- N/A -   "
0.03, 15.0973, 2.776752E-6, NaN, NaN, NaN, 0.0213636, "- N/A -   "
0.04, 15.0973, 8.330256E-6, NaN, NaN, NaN, 0.0384545, "- N/A -   "
0.05, 15.2152, 1.66605e-05, NaN, NaN, NaN, 0.0543246, "- N/A -   "
0.06, 15.3332, 3.054427E-5, NaN, NaN, NaN, 0.0689739, "- N/A -   "
0.07, 15.5691, 4.720478E-5, NaN, NaN, NaN, 0.0799609, "- N/A -   "
0.08, 16.0409, 7.21955e-05, NaN, NaN, NaN, 0.08850638, "- N/A -   "
0.09, 16.3947, 9.99631e-05, NaN, NaN, NaN, 0.095831, "- N/A -   "
0.1, 16.74854, 0.000130507, NaN, NaN, NaN, 0.103156, "- N/A -   "
0.11, 17.3383, 0.000158275, NaN, NaN, NaN, 0.09705182, "- N/A -   "
0.12, 17.6921, 0.000188819, NaN, NaN, NaN, 0.09094793, "- N/A -   "
0.13, 18.046, 2.138099E-4, NaN, NaN, NaN, 0.0872856, "- N/A -   "
0.14, 18.3998, 0.000238801, NaN, NaN, NaN, 0.08362327, "- N/A -   "
0.15, 18.7536, 0.000263791, NaN, NaN, NaN, 0.0799609, "- N/A -   "
0.16, 19.1075, 0.000286005, NaN, NaN, NaN, 0.07751938, "- N/A -   "
0.17, 19.3434, 3.109962E-4, NaN, NaN, NaN, 0.07385705, "- N/A -   "
0.18, 19.6972, 0.00033321, NaN, NaN, NaN, 0.07263627, "- N/A -   "
0.19, 19.9331, 0.000349871, NaN, NaN, NaN, 0.07141549, "- N/A -   "
0.2, 20.169, 0.000372085, NaN, NaN, NaN, 0.0689739, "- N/A -   "
0.21, 20.4049, 0.000391522, NaN, NaN, NaN, 0.06775316, "- N/A -   "
0.22, 20.7588, 4.13736E-4, NaN, NaN, NaN, 0.06653238, "- N/A -   "
0.23, 20.99465, 4.331733E-4, NaN, NaN, NaN, 0.0653116, "- N/A -   "
0.24, 21.3485, 4.553873E-4, NaN, NaN, NaN, 0.06287005, "- N/A -   "
0.25, 21.5844, 0.000474825, NaN, NaN, NaN, 0.06164927, "- N/A -   "
0.26, 21.93823, 4.942618E-4, NaN, NaN, NaN, 0.0592077, "- N/A -   "
0.27, 22.1741, 5.136991E-4, NaN, NaN, NaN, 0.0579869, "- N/A -   "
0.28, 22.528, 0.000533136, NaN, NaN, NaN, 0.05676616, "- N/A -   "
0.29, 22.7639, 5.525736E-4, NaN, NaN, NaN, 0.0555454, "- N/A -   "
0.3, 22.9998, 5.720109E-4, NaN, NaN, NaN, 0.0543246, "- N/A -   "
0.31, 23.3536, 5.942249E-4, NaN, NaN, NaN, 0.05188305, "- N/A -   "
0.32, 23.5895, 6.164389E-4, NaN, NaN, NaN, 0.05066227, "- N/A -   "
0.33, 23.9433, 0.000638653, NaN, NaN, NaN, 0.0482207, "- N/A -   "
0.34, 24.1792, 0.00065809, NaN, NaN, NaN, 0.04577916, "- N/A -   "
0.35, 24.5331, 6.803042E-4, NaN, NaN, NaN, 0.0433376, "- N/A -   "
0.36, 24.8869, 6.997415E-4, NaN, NaN, NaN, 0.04211683, "- N/A -   "
0.37, 25.1228, 7.219555E-4, NaN, NaN, NaN, 0.04089605, "- N/A -   "
0.38, 25.3587, 7.413927E-4, NaN, NaN, NaN, 0.0384545, "- N/A -   "
0.39, 25.5946, 0.000758053, NaN, NaN, NaN, 0.0384545, "- N/A -   "
0.4, 25.9484, 7.774905E-4, NaN, NaN, NaN, 0.0372337, "- N/A -   "
0.41, 26.18434, 0.000794151, NaN, NaN, NaN, 0.0372337, "- N/A -   "
0.42, 26.3023, 8.108115E-4, NaN, NaN, NaN, 0.0372337, "- N/A -   "
0.43, 26.6561, 8.27472E-4, NaN, NaN, NaN, 0.0372337, "- N/A -   "
0.44, 26.892, 0.000844133, NaN, NaN, NaN, 0.0372337, "- N/A -   "
0.48, 27.7177, 0.000907998, NaN, NaN, NaN, 0.0384545, "- N/A -   "
0.52, 29.0151, 9.857469E-4, NaN, NaN, NaN, 0.0335714, "- N/A -   "
0.56, 29.9587, 0.00105794, NaN, NaN, NaN, 0.03112983, "- N/A -   "
0.6, 30.9022, 0.00112458, NaN, NaN, NaN, 0.03112983, "- N/A -   "
0.64, 31.9638, 0.00118845, NaN, NaN, NaN, 0.0323506, "- N/A -   "
0.68, 32.7894, 0.00124954, NaN, NaN, NaN, 0.0347922, "- N/A -   "
0.72, 33.61503, 0.00130785, NaN, NaN, NaN, 0.0384545, "- N/A -   "
0.76, 34.55861, 0.00136894, NaN, NaN, NaN, 0.04089605, "- N/A -   "
0.8, 35.3842, 0.00142725, NaN, NaN, NaN, 0.0445584, "- N/A -   "
0.84, 36.44577, 0.00149389, NaN, NaN, NaN, 0.0445584, "- N/A -   "
0.88, 37.5073, 0.00156609, NaN, NaN, NaN, 0.04211683, "- N/A -   "
0.92, 38.68677, 0.00163828, NaN, NaN, NaN, 0.04089605, "- N/A -   "
0.96, 39.7483, 0.0017077, NaN, NaN, NaN, 0.0384545, "- N/A -   "
1, 40.8098, 0.00177712, NaN, NaN, NaN, 0.0372337, "- N/A -   "
1.04, 41.8714, 0.00184932, NaN, NaN, NaN, 0.0347922, "- N/A -   "
1.08, 42.93288, 0.00191596, NaN, NaN, NaN, 0.0347922, "- N/A -   "
1.12, 44.1124, 0.00198815, NaN, NaN, NaN, 0.0335714, "- N/A -   "
1.16, 45.29183, 0.002057573, NaN, NaN, NaN, 0.03112983, "- N/A -   "
1.2, 46.3534, 0.002126992, NaN, NaN, NaN, 0.03112983, "- N/A -   "
1.24, 47.4149, 0.002193634, NaN, NaN, NaN, 0.0299091, "- N/A -   "
1.28, 48.47641, 0.0022575, NaN, NaN, NaN, 0.03112983, "- N/A -   "
1.32, 49.41999, 0.00232136, NaN, NaN, NaN, 0.0335714, "- N/A -   "
1.36, 50.3636, 0.002382453, NaN, NaN, NaN, 0.0347922, "- N/A -   "
1.4, 51.30715, 0.002437988, NaN, NaN, NaN, 0.0396753, "- N/A -   "
1.44, 52.25073, 0.00249908, NaN, NaN, NaN, 0.0433376, "- N/A -   "
1.48, 53.3123, 0.002562942, NaN, NaN, NaN, 0.0433376, "- N/A -   "
1.52, 54.4917, 0.00262681, NaN, NaN, NaN, 0.0445584, "- N/A -   "
1.56, 55.43531, 0.00269067, NaN, NaN, NaN, 0.04577916, "- N/A -   "
1.6, 56.6148, 0.00275731, NaN, NaN, NaN, 0.04577916, "- N/A -   "
1.64, 57.5584, 0.00282951, NaN, NaN, NaN, 0.0433376, "- N/A -   "
1.68, 59.0917, 0.00290726, NaN, NaN, NaN, 0.0384545, "- N/A -   "
1.72, 60.3891, 0.002987785, NaN, NaN, NaN, 0.0335714, "- N/A -   "
1.76, 61.56858, 0.00305998, NaN, NaN, NaN, 0.0299091, "- N/A -   "
1.8, 62.7481, 0.0031294, NaN, NaN, NaN, 0.0286883, "- N/A -   "
1.84, 63.80958, 0.00319604, NaN, NaN, NaN, 0.0286883, "- N/A -   "
1.88, 64.87111, 0.00325991, NaN, NaN, NaN, 0.03112983, "- N/A -   "
1.92, 66.05058, 0.003321, NaN, NaN, NaN, 0.0323506, "- N/A -   "
1.96, 67.1121, 0.003379307, NaN, NaN, NaN, 0.03601294, "- N/A -   "
2, 68.05569, 0.00344317, NaN, NaN, NaN, 0.0372337, "- N/A -   "
2.04, 69.35311, 0.00350981, NaN, NaN, NaN, 0.0372337, "- N/A -   "
2.08, 70.5326, 0.00357646, NaN, NaN, NaN, 0.0372337, "- N/A -   "
2.12, 71.4762, 0.00363477, NaN, NaN, NaN, 0.04089605, "- N/A -   "
2.16, 72.5377, 0.00369863, NaN, NaN, NaN, 0.04211683, "- N/A -   "
2.2, 73.83511, 0.0037625, NaN, NaN, NaN, 0.0433376, "- N/A -   "
2.24, 75.13254, 0.00383192, NaN, NaN, NaN, 0.04211683, "- N/A -   "
2.28, 76.43, 0.00390689, NaN, NaN, NaN, 0.0396753, "- N/A -   "
2.32, 77.84533, 0.00397909, NaN, NaN, NaN, 0.03601294, "- N/A -   "
2.36, 79.14275, 0.004051281, NaN, NaN, NaN, 0.0335714, "- N/A -   "
2.4, 80.55813, 0.004126253, NaN, NaN, NaN, 0.0299091, "- N/A -   "
2.44, 81.8555, 0.0041929, NaN, NaN, NaN, 0.03112983, "- N/A -   "
2.48, 83.03502, 0.004253984, NaN, NaN, NaN, 0.0323506, "- N/A -   "
2.52, 84.09654, 0.004315072, NaN, NaN, NaN, 0.0347922, "- N/A -   "
2.56, 85.15807, 0.00437894, NaN, NaN, NaN, 0.03601294, "- N/A -   "
2.6, 86.69139, 0.00445113, NaN, NaN, NaN, 0.0335714, "- N/A -   "
2.64, 87.9888, 0.00451778, NaN, NaN, NaN, 0.0335714, "- N/A -   "
2.68, 89.28623, 0.00458164, NaN, NaN, NaN, 0.0347922, "- N/A -   "
2.72, 90.4657, 0.004642729, NaN, NaN, NaN, 0.0372337, "- N/A -   "
2.76, 91.64519, 0.00470659, NaN, NaN, NaN, 0.0384545, "- N/A -   "
2.8, 92.82466, 0.004767683, NaN, NaN, NaN, 0.04089605, "- N/A -   "
2.84, 94.1221, 0.0048371, NaN, NaN, NaN, 0.0396753, "- N/A -   "
2.88, 95.5374, 0.00490374, NaN, NaN, NaN, 0.0396753, "- N/A -   "
2.92, 96.71693, 0.004967609, NaN, NaN, NaN, 0.04211683, "- N/A -   "
[...]
36.8, 1481.78, 0.06144952, NaN, NaN, NaN, 0.0347922, "- N/A -   "
36.83, 1482.972, 0.0614939, NaN, NaN, NaN, 0.0372337, "- N/A -   "
36.86, 1484.16, 0.0615384, NaN, NaN, NaN, 0.0396753, "- N/A -   "
36.89, 1485.36, 0.0615828, NaN, NaN, NaN, 0.04211683, "- N/A -   "
36.92, 1486.43, 0.06163, NaN, NaN, NaN, 0.0433376, "- N/A -   "
36.95, 1487.98, 0.0616828, NaN, NaN, NaN, 0.04211683, "- N/A -   "
36.98, 1489.29, 0.0617355, NaN, NaN, NaN, 0.04089605, "- N/A -   "
37.01, 1490.72, 0.06178828, NaN, NaN, NaN, 0.04089605, "- N/A -   "
37.04, 1492.04, 0.06183549, NaN, NaN, NaN, 0.04089605, "- N/A -   "
37.07, 1493.35, 0.0618882, NaN, NaN, NaN, 0.0396753, "- N/A -   "
37.1, 1494.9, 0.06194378, NaN, NaN, NaN, 0.0372337, "- N/A -   "
37.13, 1496.209, 0.0619938, NaN, NaN, NaN, 0.0372337, "- N/A -   "
37.16, 1497.52, 0.062041, NaN, NaN, NaN, 0.0384545, "- N/A -   "
37.19, 1498.71, 0.06209095, NaN, NaN, NaN, 0.0384545, "- N/A -   "
37.22, 1499.91, 0.06214093, NaN, NaN, NaN, 0.0384545, "- N/A -   "
37.25, 1501.69, 0.0621992, NaN, NaN, NaN, 0.0347922, "- N/A -   "
37.28, 1503.13, 0.0622548, NaN, NaN, NaN, 0.0323506, "- N/A -   "
37.31, 1504.44, 0.0623075, NaN, NaN, NaN, 0.03112983, "- N/A -   "
37.34, 1505.63, 0.0623547, NaN, NaN, NaN, 0.0323506, "- N/A -   "
37.37, 1506.94, 0.0624019, NaN, NaN, NaN, 0.0335714, "- N/A -   "
37.4, 1508.13, 0.0624519, NaN, NaN, NaN, 0.0335714, "- N/A -   "
37.43, 1509.57, 0.06250191, NaN, NaN, NaN, 0.0335714, "- N/A -   "
37.46, 1510.76, 0.06255189, NaN, NaN, NaN, 0.0335714, "- N/A -   "
37.49, 1512.07, 0.06260465, NaN, NaN, NaN, 0.0335714, "- N/A -   "
37.52, 1513.5, 0.06265463, NaN, NaN, NaN, 0.0323506, "- N/A -   "
37.55, 1514.693, 0.0627018, NaN, NaN, NaN, 0.0335714, "- N/A -   "
37.58, 1515.77, 0.0627463, NaN, NaN, NaN, 0.03601294, "- N/A -   "
37.61, 1516.84, 0.06279069, NaN, NaN, NaN, 0.0384545, "- N/A -   "
37.64, 1518.15, 0.06283512, NaN, NaN, NaN, 0.04089605, "- N/A -   "
37.67, 1519.34, 0.06288233, NaN, NaN, NaN, 0.04211683, "- N/A -   "
37.7, 1520.42, 0.06292675, NaN, NaN, NaN, 0.0445584, "- N/A -   "
37.73, 1521.729, 0.062974, NaN, NaN, NaN, 0.04577916, "- N/A -   "
37.76, 1523.16, 0.06302394, NaN, NaN, NaN, 0.04577916, "- N/A -   "
37.79, 1524.591, 0.06307948, NaN, NaN, NaN, 0.0433376, "- N/A -   "
37.82, 1526.022, 0.063135, NaN, NaN, NaN, 0.04089605, "- N/A -   "
37.85, 1527.57, 0.06319609, NaN, NaN, NaN, 0.03601294, "- N/A -   "
37.88, 1529.12, 0.06325441, NaN, NaN, NaN, 0.0335714, "- N/A -   "
37.91, 1530.67, 0.06330439, NaN, NaN, NaN, 0.0323506, "- N/A -   "
37.94, 1531.87, 0.0633571, NaN, NaN, NaN, 0.03112983, "- N/A -   "
37.97, 1533.18, 0.06340713, NaN, NaN, NaN, 0.03112983, "- N/A -   "
38, 1534.37, 0.06345434, NaN, NaN, NaN, 0.0323506, "- N/A -   "
38.03, 1535.68, 0.0635043, NaN, NaN, NaN, 0.0323506, "- N/A -   "
38.06, 1537.11, 0.06355985, NaN, NaN, NaN, 0.03112983, "- N/A -   "
38.09, 1538.42, 0.06361261, NaN, NaN, NaN, 0.0286883, "- N/A -   "
38.12, 1539.736, 0.06366259, NaN, NaN, NaN, 0.0286883, "- N/A -   "
38.15, 1541.05, 0.0637098, NaN, NaN, NaN, 0.0299091, "- N/A -   "
38.18, 1542.12, 0.06375422, NaN, NaN, NaN, 0.0323506, "- N/A -   "
38.21, 1543.31, 0.06380143, NaN, NaN, NaN, 0.0335714, "- N/A -   "
38.24, 1544.506, 0.06384864, NaN, NaN, NaN, 0.0347922, "- N/A -   "
38.27, 1545.58, 0.06389306, NaN, NaN, NaN, 0.0372337, "- N/A -   "
38.3, 1546.65, 0.0639319, NaN, NaN, NaN, 0.04211683, "- N/A -   "
38.33, 1547.61, 0.06397359, NaN, NaN, NaN, 0.04577916, "- N/A -   "
38.36, 1548.92, 0.06402079, NaN, NaN, NaN, 0.04699994, "- N/A -   "
38.389, 1550.23, 0.0640708, NaN, NaN, NaN, 0.04699994, "- N/A -   "