Folder: DigitalTwins-Machine-Learning/2_Tensile_Data (part 2)

File: Hamel_ForceTest_Bolt3_Test1.csv
Time, Load (lb), Position (in), AxialStrain (in), TransverseStrain (in), Auxiliary (), Control Out (V), Stress (psi)
0.0,1.06153,0.0, NaN, NaN, NaN,0.11048," ""- N/A -   """
0.01,1.17947,2.77675e-05, NaN, NaN, NaN,0.106818," ""- N/A -   """
0.02,1.53332,5.83118e-05, NaN, NaN, NaN,0.100714," ""- N/A -   """
0.03,1.65126,8.607931e-05, NaN, NaN, NaN,0.09705182," ""- N/A -   """
0.16,3.53842,0.0003859685, NaN, NaN, NaN,0.0592077," ""- N/A -   """
0.29,5.071741,0.0006636437, NaN, NaN, NaN,0.0335714," ""- N/A -   """
0.42,6.487111,0.0008746768, NaN, NaN, NaN,0.0347922," ""- N/A -   """
0.55,7.784533,0.00108571, NaN, NaN, NaN,0.0372337," ""- N/A -   """
0.68,9.081955,0.00129119, NaN, NaN, NaN,0.0433376," ""- N/A -   """
0.81,10.4973,0.00151611, NaN, NaN, NaN,0.0384545," ""- N/A -   """
0.94,12.0306,0.0017438, NaN, NaN, NaN,0.0335714," ""- N/A -   """
1.07,13.3281,0.00195761, NaN, NaN, NaN,0.03601294," ""- N/A -   """
1.2,14.6255,0.00217697, NaN, NaN, NaN,0.0347922," ""- N/A -   """
1.33,16.0409,0.00237968, NaN, NaN, NaN,0.0396753," ""- N/A -   """
1.46,17.5742,0.00259904, NaN, NaN, NaN,0.0384545," ""- N/A -   """
1.59,18.9895,0.00282118, NaN, NaN, NaN,0.03601294," ""- N/A -   """
1.72,20.52286,0.00305165, NaN, NaN, NaN,0.03112983," ""- N/A -   """
1.85,21.93823,0.00325991, NaN, NaN, NaN,0.0335714," ""- N/A -   """
1.98,23.2357,0.00347649, NaN, NaN, NaN,0.0347922," ""- N/A -   """
2.11,24.5331,0.00367642, NaN, NaN, NaN,0.04211683," ""- N/A -   """
2.24,25.8305,0.00390134, NaN, NaN, NaN,0.0372337," ""- N/A -   """
2.37,27.2459,0.004123477, NaN, NaN, NaN,0.0347922," ""- N/A -   """
2.5,28.7792,0.00435117, NaN, NaN, NaN,0.0299091," ""- N/A -   """
2.63,29.9587,0.00455665, NaN, NaN, NaN,0.03601294," ""- N/A -   """
2.76,31.2561,0.00475102, NaN, NaN, NaN,0.0445584," ""- N/A -   """
2.89,32.5535,0.004981493, NaN, NaN, NaN,0.0396753," ""- N/A -   """
3.02,33.9689,0.00521196, NaN, NaN, NaN,0.0323506," ""- N/A -   """
3.15,35.3842,0.00544243, NaN, NaN, NaN,0.0274675," ""- N/A -   """
3.28,36.5637,0.00563681, NaN, NaN, NaN,0.03601294," ""- N/A -   """
3.41,37.9791,0.00583951, NaN, NaN, NaN,0.0433376," ""- N/A -   """
3.54,39.3945,0.006056096, NaN, NaN, NaN,0.0433376," ""- N/A -   """
3.67,41.39956,0.006306004, NaN, NaN, NaN,0.0299091," ""- N/A -   """
3.8,43.2867,0.00651426, NaN, NaN, NaN,0.0323506," ""- N/A -   """
3.93,45.29183,0.00671696, NaN, NaN, NaN,0.0396753," ""- N/A -   """
4.06,47.65078,0.00693077, NaN, NaN, NaN,0.0396753," ""- N/A -   """
4.19,50.1277,0.00715014, NaN, NaN, NaN,0.0384545," ""- N/A -   """
4.32,53.19431,0.007388937, NaN, NaN, NaN,0.0299091," ""- N/A -   """
4.45,55.3174,0.00757776, NaN, NaN, NaN,0.04089605," ""- N/A -   """
4.58,58.26605,0.00780545, NaN, NaN, NaN,0.0372337," ""- N/A -   """
4.71,60.8609,0.008010929, NaN, NaN, NaN,0.04211683," ""- N/A -   """
4.84,63.80958,0.008238623, NaN, NaN, NaN,0.0372337," ""- N/A -   """
4.97,66.87622,0.008463539, NaN, NaN, NaN,0.0335714," ""- N/A -   """
5.1,69.8249,0.008674573, NaN, NaN, NaN,0.0347922," ""- N/A -   """
5.23,72.77359,0.008893936, NaN, NaN, NaN,0.0335714," ""- N/A -   """
5.36,75.6043,0.009107746, NaN, NaN, NaN,0.0347922," ""- N/A -   """
5.49,78.31712,0.009313226, NaN, NaN, NaN,0.04089605," ""- N/A -   """
5.62,81.14786,0.00952426, NaN, NaN, NaN,0.04211683," ""- N/A -   """
5.75,83.9786,0.00976306, NaN, NaN, NaN,0.0323506," ""- N/A -   """
5.88,86.69139,0.009987976, NaN, NaN, NaN,0.0299091," ""- N/A -   """
6.01,89.05035,0.0102018, NaN, NaN, NaN,0.0299091," ""- N/A -   """
6.14,91.05545,0.0103878, NaN, NaN, NaN,0.0433376," ""- N/A -   """
6.27,93.76824,0.01061, NaN, NaN, NaN,0.04211683," ""- N/A -   """
6.4,96.95282,0.01084877, NaN, NaN, NaN,0.03112983," ""- N/A -   """
6.53,99.9015,0.0110654, NaN, NaN, NaN,0.03112983," ""- N/A -   """
6.66,103.204,0.0112792, NaN, NaN, NaN,0.0335714," ""- N/A -   """
6.79,106.507,0.0114708, NaN, NaN, NaN,0.0433376," ""- N/A -   """
6.92,110.399,0.0116929, NaN, NaN, NaN,0.04089605," ""- N/A -   """
7.05,114.999,0.0119317, NaN, NaN, NaN,0.0323506," ""- N/A -   """
7.18,118.891,0.0121538, NaN, NaN, NaN,0.0286883," ""- N/A -   """
7.31,122.312,0.0123538, NaN, NaN, NaN,0.03601294," ""- N/A -   """
7.44,126.086,0.01256758, NaN, NaN, NaN,0.0372337," ""- N/A -   """
7.57,129.506,0.0127647, NaN, NaN, NaN,0.04577916," ""- N/A -   """
7.7,134.106,0.01301186, NaN, NaN, NaN,0.0323506," ""- N/A -   """
7.83,137.8806,0.01322567, NaN, NaN, NaN,0.0335714," ""- N/A -   """
7.96,141.773,0.013445, NaN, NaN, NaN,0.0335714," ""- N/A -   """
8.09,145.429,0.0136505, NaN, NaN, NaN,0.0396753," ""- N/A -   """
8.22,149.204,0.0138671, NaN, NaN, NaN,0.0384545," ""- N/A -   """
8.35,153.332,0.014092, NaN, NaN, NaN,0.0347922," ""- N/A -   """
8.48,156.988,0.014303, NaN, NaN, NaN,0.0372337," ""- N/A -   """
8.61,161.234,0.0145307, NaN, NaN, NaN,0.0323506," ""- N/A -   """
8.74,165.009,0.0147473, NaN, NaN, NaN,0.0323506," ""- N/A -   """
8.87,168.547,0.0149473, NaN, NaN, NaN,0.0396753," ""- N/A -   """
9,172.321,0.0151527, NaN, NaN, NaN,0.0445584," ""- N/A -   """
9.13,177.039,0.0153971, NaN, NaN, NaN,0.0323506," ""- N/A -   """
9.26,180.696,0.0156053, NaN, NaN, NaN,0.03601294," ""- N/A -   """
9.39,185.06,0.0158358, NaN, NaN, NaN,0.0299091," ""- N/A -   """
9.52,188.3621,0.0160246, NaN, NaN, NaN,0.04211683," ""- N/A -   """
9.65,192.372,0.0162384, NaN, NaN, NaN,0.0433376," ""- N/A -   """
9.78,196.854,0.0164717, NaN, NaN, NaN,0.03601294," ""- N/A -   """
9.91,201.2184,0.01670494, NaN, NaN, NaN,0.0286883," ""- N/A -   """
10.04,205.2286,0.0169215, NaN, NaN, NaN,0.0286883," ""- N/A -   """
10.17,208.531,0.0171103, NaN, NaN, NaN,0.04089605," ""- N/A -   """
10.3,212.541,0.0173242, NaN, NaN, NaN,0.0433376," ""- N/A -   """
10.43,216.905,0.0175463, NaN, NaN, NaN,0.0396753," ""- N/A -   """
10.56,221.387,0.0177851, NaN, NaN, NaN,0.0299091," ""- N/A -   """
10.69,225.044,0.017985, NaN, NaN, NaN,0.0372337," ""- N/A -   """
10.82,229.054,0.0182016, NaN, NaN, NaN,0.0372337," ""- N/A -   """
10.95,232.71,0.0184043, NaN, NaN, NaN,0.0433376," ""- N/A -   """
11.08,237.428,0.0186487, NaN, NaN, NaN,0.0323506," ""- N/A -   """
11.21,241.321,0.0188653, NaN, NaN, NaN,0.03112983," ""- N/A -   """
11.34,245.21,0.0190763, NaN, NaN, NaN,0.0335714," ""- N/A -   """
11.47,249.098,0.0192929, NaN, NaN, NaN,0.0347922," ""- N/A -   """
11.6,252.633,0.0194928, NaN, NaN, NaN,0.04089605," ""- N/A -   """
11.73,256.8748,0.0197149, NaN, NaN, NaN,0.0384545," ""- N/A -   """
11.86,260.8809,0.0199399, NaN, NaN, NaN,0.0347922," ""- N/A -   """
11.99,264.887,0.0201592, NaN, NaN, NaN,0.0347922," ""- N/A -   """
12.12,268.7752,0.02037025, NaN, NaN, NaN,0.03601294," ""- N/A -   """
12.25,272.663,0.02058406, NaN, NaN, NaN,0.0372337," ""- N/A -   """
12.38,276.552,0.02078954, NaN, NaN, NaN,0.04211683," ""- N/A -   """
12.51,281.147,0.0210311, NaN, NaN, NaN,0.03112983," ""- N/A -   """
12.64,284.8,0.0212422, NaN, NaN, NaN,0.0347922," ""- N/A -   """
12.77,289.277,0.0214754, NaN, NaN, NaN,0.0274675," ""- N/A -   """
12.9,292.6939,0.0216725, NaN, NaN, NaN,0.0372337," ""- N/A -   """
13.03,296.2287,0.02186692, NaN, NaN, NaN,0.04699994," ""- N/A -   """
13.16,300.588,0.02209739, NaN, NaN, NaN,0.0396753," ""- N/A -   """
13.29,305.066,0.0223334, NaN, NaN, NaN,0.03112983," ""- N/A -   """
13.42,309.072,0.02255, NaN, NaN, NaN,0.03112983," ""- N/A -   """
[...]
26.37,764.965,0.0441392, NaN, NaN, NaN,0.0299091," ""- N/A -   """
26.46,768.395,0.0442892, NaN, NaN, NaN,0.0299091," ""- N/A -   """
26.55,770.997,0.0444169, NaN, NaN, NaN,0.0384545," ""- N/A -   """
26.64,774.0727,0.0445474, NaN, NaN, NaN,0.04699994," ""- N/A -   """
26.73,777.6211,0.04470293, NaN, NaN, NaN,0.04577916," ""- N/A -   """
26.82,781.761,0.0448751, NaN, NaN, NaN,0.03601294," ""- N/A -   """
26.91,785.1911,0.04502503, NaN, NaN, NaN,0.0347922," ""- N/A -   """
27,789.094,0.04518886, NaN, NaN, NaN,0.0286883," ""- N/A -   """
27.09,792.525,0.045336, NaN, NaN, NaN,0.0299091," ""- N/A -   """
27.18,795.4815,0.0454749, NaN, NaN, NaN,0.0347922," ""- N/A -   """
27.27,798.5568,0.04560815, NaN, NaN, NaN,0.04211683," ""- N/A -   """
27.36,801.8687,0.0457498, NaN, NaN, NaN,0.04577916," ""- N/A -   """
27.45,805.4171,0.0459025, NaN, NaN, NaN,0.0445584," ""- N/A -   """
27.54,809.7935,0.0460858, NaN, NaN, NaN,0.0299091," ""- N/A -   """
27.63,813.4602,0.04623569, NaN, NaN, NaN,0.0299091," ""- N/A -   """
27.72,816.6538,0.0463801, NaN, NaN, NaN,0.0323506," ""- N/A -   """
27.81,819.847,0.0465245, NaN, NaN, NaN,0.0347922," ""- N/A -   """
27.9,823.159,0.04666887, NaN, NaN, NaN,0.0372337," ""- N/A -   """
27.99,826.1163,0.0467994, NaN, NaN, NaN,0.04577916," ""- N/A -   """
28.08,829.901,0.0469549, NaN, NaN, NaN,0.0433376," ""- N/A -   """
28.17,834.159,0.04712981, NaN, NaN, NaN,0.0323506," ""- N/A -   """
28.26,837.5895,0.0472798, NaN, NaN, NaN,0.0323506," ""- N/A -   """
28.35,840.9014,0.04742414, NaN, NaN, NaN,0.0347922," ""- N/A -   """
28.44,844.686,0.04758242, NaN, NaN, NaN,0.0323506," ""- N/A -   """
28.53,848.116,0.0477296, NaN, NaN, NaN,0.0335714," ""- N/A -   """
28.62,851.0735,0.0478601, NaN, NaN, NaN,0.04089605," ""- N/A -   """
28.71,854.8585,0.04801837, NaN, NaN, NaN,0.0372337," ""- N/A -   """
28.8,858.17,0.0481628, NaN, NaN, NaN,0.0396753," ""- N/A -   """
28.89,861.9554,0.04831826, NaN, NaN, NaN,0.0372337," ""- N/A -   """
28.98,865.2672,0.04847098, NaN, NaN, NaN,0.03601294," ""- N/A -   """
29.07,868.9339,0.0486237, NaN, NaN, NaN,0.0347922," ""- N/A -   """
29.16,872.601,0.048782, NaN, NaN, NaN,0.03112983," ""- N/A -   """
29.25,876.031,0.0489291, NaN, NaN, NaN,0.0323506," ""- N/A -   """
29.34,879.224,0.0490652, NaN, NaN, NaN,0.0384545," ""- N/A -   """
29.43,882.2996,0.0492013, NaN, NaN, NaN,0.0445584," ""- N/A -   """
29.52,886.085,0.0493568, NaN, NaN, NaN,0.04211683," ""- N/A -   """
29.61,890.1062,0.04952337, NaN, NaN, NaN,0.0347922," ""- N/A -   """
29.7,893.5364,0.0496733, NaN, NaN, NaN,0.0347922," ""- N/A -   """
29.79,897.4396,0.0498371, NaN, NaN, NaN,0.0299091," ""- N/A -   """
29.88,900.751,0.0499815, NaN, NaN, NaN,0.03112983," ""- N/A -   """
29.97,903.7085,0.05011204, NaN, NaN, NaN,0.0396753," ""- N/A -   """
30.06,907.0204,0.05025643, NaN, NaN, NaN,0.0433376," ""- N/A -   """
30.15,910.6871,0.05041193, NaN, NaN, NaN,0.04089605," ""- N/A -   """
30.24,914.59,0.05057298, NaN, NaN, NaN,0.03601294," ""- N/A -   """
30.33,918.02,0.0507229, NaN, NaN, NaN,0.0347922," ""- N/A -   """
30.42,922.042,0.05088398, NaN, NaN, NaN,0.0299091," ""- N/A -   """
30.51,925.472,0.0510367, NaN, NaN, NaN,0.0286883," ""- N/A -   """
30.6,928.4292,0.05117, NaN, NaN, NaN,0.03601294," ""- N/A -   """
30.69,931.504,0.051306, NaN, NaN, NaN,0.0445584," ""- N/A -   """
30.78,935.1712,0.05145876, NaN, NaN, NaN,0.04211683," ""- N/A -   """
30.87,938.8379,0.0516115, NaN, NaN, NaN,0.04089605," ""- N/A -   """
30.96,942.9778,0.0517836, NaN, NaN, NaN,0.03112983," ""- N/A -   """
31.011,945.1068,0.0518697, NaN, NaN, NaN,0.03112983," ""- N/A -   """

File: Hamel_ForceTest_Bolt3_Test2.csv
Time, Load (lb), Position (in), AxialStrain (in), TransverseStrain (in), Auxiliary (), Control Out (V), Stress (psi)
0.0, 1.06153, 0.0, NaN, NaN, NaN, 0.08362327, "- N/A -   "
0.01, 1.17947, 2.77675e-05, NaN, NaN, NaN, 0.0799609, "- N/A -   "
0.02, 1.29742, 4.99815e-05, NaN, NaN, NaN, 0.0762986, "- N/A -   "
0.03, 1.41537, 7.49723E-5, NaN, NaN, NaN, 0.07385705, "- N/A -   "
0.04, 1.53332, 9.99631e-05, NaN, NaN, NaN, 0.0701947, "- N/A -   "
0.05, 1.76921, 0.000122177, NaN, NaN, NaN, 0.06775316, "- N/A -   "
0.06, 1.88716, 0.000141614, NaN, NaN, NaN, 0.0653116, "- N/A -   "
0.07, 2.005107, 1.610516E-4, NaN, NaN, NaN, 0.0640908, "- N/A -   "
0.08, 2.005107, 0.000180489, NaN, NaN, NaN, 0.06287005, "- N/A -   "
0.09, 2.005107, 0.000197149, NaN, NaN, NaN, 0.06287005, "- N/A -   "
0.1, 2.241, 0.000216587, NaN, NaN, NaN, 0.06164927, "- N/A -   "
0.11, 2.241, 2.360239E-4, NaN, NaN, NaN, 0.06164927, "- N/A -   "
0.12, 2.35895, 0.000255461, NaN, NaN, NaN, 0.0592077, "- N/A -   "
0.32, 4.482, 0.000635876, NaN, NaN, NaN, 0.0384545, "- N/A -   "
0.52, 6.723006, 9.829701E-4, NaN, NaN, NaN, 0.0335714, "- N/A -   "
0.72, 9.31785, 0.0013023, NaN, NaN, NaN, 0.0384545, "- N/A -   "
0.92, 12.14859, 0.00163273, NaN, NaN, NaN, 0.0396753, "- N/A -   "
1.12, 15.3332, 0.00197982, NaN, NaN, NaN, 0.0335714, "- N/A -   "
1.32, 18.7536, 0.002307481, NaN, NaN, NaN, 0.03601294, "- N/A -   "
1.52, 22.29207, 0.00262681, NaN, NaN, NaN, 0.04211683, "- N/A -   "
1.72, 26.3023, 0.0029739, NaN, NaN, NaN, 0.03601294, "- N/A -   "
1.92, 30.3125, 0.003312665, NaN, NaN, NaN, 0.0335714, "- N/A -   "
2.12, 34.08682, 0.00363477, NaN, NaN, NaN, 0.0384545, "- N/A -   "
2.32, 38.215, 0.003962425, NaN, NaN, NaN, 0.04211683, "- N/A -   "
2.52, 42.4611, 0.004315072, NaN, NaN, NaN, 0.0323506, "- N/A -   "
2.72, 46.7072, 0.004645506, NaN, NaN, NaN, 0.0335714, "- N/A -   "
2.92, 50.4815, 0.00495095, NaN, NaN, NaN, 0.04699994, "- N/A -   "
3.12, 55.6712, 0.005314703, NaN, NaN, NaN, 0.0335714, "- N/A -   "
3.32, 60.5071, 0.00565347, NaN, NaN, NaN, 0.0299091, "- N/A -   "
3.52, 64.87111, 0.005956133, NaN, NaN, NaN, 0.04577916, "- N/A -   "
3.72, 69.94285, 0.006303227, NaN, NaN, NaN, 0.0396753, "- N/A -   "
3.92, 75.13254, 0.006655874, NaN, NaN, NaN, 0.0299091, "- N/A -   "
4.12, 79.61454, 0.006972424, NaN, NaN, NaN, 0.0372337, "- N/A -   "
4.32, 84.45039, 0.00729175, NaN, NaN, NaN, 0.0433376, "- N/A -   "
4.52, 89.52213, 0.0076444, NaN, NaN, NaN, 0.0347922, "- N/A -   "
4.72, 94.59387, 0.007983162, NaN, NaN, NaN, 0.0335714, "- N/A -   "
4.92, 99.3118, 0.008299711, NaN, NaN, NaN, 0.04089605, "- N/A -   "
5.12, 104.384, 0.008638475, NaN, NaN, NaN, 0.0372337, "- N/A -   "
5.32, 109.691, 0.008988346, NaN, NaN, NaN, 0.0299091, "- N/A -   "
5.52, 114.173, 0.009304896, NaN, NaN, NaN, 0.0372337, "- N/A -   "
5.72, 118.7731, 0.009627, NaN, NaN, NaN, 0.0433376, "- N/A -   "
5.92, 123.845, 0.00997687, NaN, NaN, NaN, 0.0347922, "- N/A -   "
6.12, 128.799, 0.0103184, NaN, NaN, NaN, 0.03112983, "- N/A -   "
6.32, 133.163, 0.0106183, NaN, NaN, NaN, 0.04577916, "- N/A -   "
6.52, 138.588, 0.0109793, NaN, NaN, NaN, 0.0335714, "- N/A -   "
6.72, 143.778, 0.01132637, NaN, NaN, NaN, 0.0274675, "- N/A -   "
6.92, 148.142, 0.0116179, NaN, NaN, NaN, 0.04577916, "- N/A -   "
7.12, 153.686, 0.0119706, NaN, NaN, NaN, 0.0372337, "- N/A -   "
7.32, 158.9932, 0.0123204, NaN, NaN, NaN, 0.0299091, "- N/A -   "
7.52, 163.829, 0.0126342, NaN, NaN, NaN, 0.0396753, "- N/A -   "
7.72, 169.137, 0.0129591, NaN, NaN, NaN, 0.04211683, "- N/A -   "
7.92, 174.9161, 0.0133145, NaN, NaN, NaN, 0.0323506, "- N/A -   "
8.12, 180.224, 0.0136505, NaN, NaN, NaN, 0.0335714, "- N/A -   "
8.32, 185.413, 0.0139671, NaN, NaN, NaN, 0.04089605, "- N/A -   "
8.52, 191.193, 0.0143086, NaN, NaN, NaN, 0.0372337, "- N/A -   "
8.72, 196.736, 0.0146474, NaN, NaN, NaN, 0.0335714, "- N/A -   "
8.92, 202.28, 0.0149695, NaN, NaN, NaN, 0.0384545, "- N/A -   "
9.12, 207.705, 0.0152888, NaN, NaN, NaN, 0.0445584, "- N/A -   "
9.32, 213.957, 0.015647, NaN, NaN, NaN, 0.0335714, "- N/A -   "
9.52, 219.972, 0.0159913, NaN, NaN, NaN, 0.0286883, "- N/A -   "
9.72, 225.162, 0.0162884, NaN, NaN, NaN, 0.0445584, "- N/A -   "
9.92, 231.767, 0.0166466, NaN, NaN, NaN, 0.0347922, "- N/A -   "
10.12, 237.9, 0.0169909, NaN, NaN, NaN, 0.0299091, "- N/A -   "
10.32, 243.325, 0.0172881, NaN, NaN, NaN, 0.04577916, "- N/A -   "
10.52, 249.805, 0.0176324, NaN, NaN, NaN, 0.0396753, "- N/A -   "
10.72, 256.639, 0.017985, NaN, NaN, NaN, 0.03112983, "- N/A -   "
10.92, 262.8839, 0.0183127, NaN, NaN, NaN, 0.0347922, "- N/A -   "
11.12, 269.011, 0.0186265, NaN, NaN, NaN, 0.04211683, "- N/A -   "
11.32, 276.08, 0.0189847, NaN, NaN, NaN, 0.03112983, "- N/A -   "
11.52, 282.6787, 0.0193151, NaN, NaN, NaN, 0.0323506, "- N/A -   "
11.72, 289.041, 0.0196261, NaN, NaN, NaN, 0.04211683, "- N/A -   "
11.92, 296.2287, 0.01997873, NaN, NaN, NaN, 0.0335714, "- N/A -   "
12.12, 303.18, 0.020323, NaN, NaN, NaN, 0.0299091, "- N/A -   "
12.32, 309.6609, 0.0206368, NaN, NaN, NaN, 0.0372337, "- N/A -   "
12.52, 316.377, 0.02095337, NaN, NaN, NaN, 0.0445584, "- N/A -   "
12.72, 324.153, 0.0213227, NaN, NaN, NaN, 0.0299091, "- N/A -   "
12.92, 331.223, 0.0216559, NaN, NaN, NaN, 0.0299091, "- N/A -   "
13.12, 337.35, 0.0219474, NaN, NaN, NaN, 0.0482207, "- N/A -   "
13.32, 345.244, 0.0223112, NaN, NaN, NaN, 0.0347922, "- N/A -   "
13.52, 352.785, 0.0226583, NaN, NaN, NaN, 0.0286883, "- N/A -   "
13.72, 359.266, 0.02296096, NaN, NaN, NaN, 0.04211683, "- N/A -   "
13.92, 366.571, 0.0232969, NaN, NaN, NaN, 0.04089605, "- N/A -   "
14.12, 374.583, 0.0236524, NaN, NaN, NaN, 0.03112983, "- N/A -   "
14.32, 381.6526, 0.0239745, NaN, NaN, NaN, 0.0372337, "- N/A -   "
14.52, 388.604, 0.0242882, NaN, NaN, NaN, 0.04577916, "- N/A -   "
14.72, 396.97, 0.0246548, NaN, NaN, NaN, 0.0299091, "- N/A -   "
14.92, 404.393, 0.0249852, NaN, NaN, NaN, 0.0323506, "- N/A -   "
15.12, 411.3448, 0.025299, NaN, NaN, NaN, 0.0396753, "- N/A -   "
15.32, 419.357, 0.0256433, NaN, NaN, NaN, 0.0347922, "- N/A -   "
15.52, 426.78, 0.0259765, NaN, NaN, NaN, 0.0347922, "- N/A -   "
15.72, 434.321, 0.0263125, NaN, NaN, NaN, 0.0347922, "- N/A -   "
15.92, 441.508, 0.0266235, NaN, NaN, NaN, 0.0445584, "- N/A -   "
16.12, 449.756, 0.0269817, NaN, NaN, NaN, 0.0323506, "- N/A -   "
16.32, 457.5326, 0.0273232, NaN, NaN, NaN, 0.0286883, "- N/A -   "
16.52, 464.367, 0.0276259, NaN, NaN, NaN, 0.04211683, "- N/A -   "
16.72, 472.614, 0.0279758, NaN, NaN, NaN, 0.0347922, "- N/A -   "
16.92, 480.627, 0.02832287, NaN, NaN, NaN, 0.0286883, "- N/A -   "
17.12, 487.578, 0.0286255, NaN, NaN, NaN, 0.0433376, "- N/A -   "
17.32, 495.59, 0.0289699, NaN, NaN, NaN, 0.0396753, "- N/A -   "
17.52, 503.956, 0.0293225, NaN, NaN, NaN, 0.03112983, "- N/A -   "
17.72, 511.379, 0.0296418, NaN, NaN, NaN, 0.0372337, "- N/A -   "
17.92, 518.9409, 0.0299612, NaN, NaN, NaN, 0.0433376, "- N/A -   "
18.12, 527.6937, 0.0303194, NaN, NaN, NaN, 0.03112983, "- N/A -   "
18.32, 535.382, 0.03064701, NaN, NaN, NaN, 0.0335714, "- N/A -   "
18.52, 542.715, 0.0309636, NaN, NaN, NaN, 0.04089605, "- N/A -   "
18.72, 551.113, 0.0313079, NaN, NaN, NaN, 0.03601294, "- N/A -   "
18.92, 559.156, 0.0316522, NaN, NaN, NaN, 0.03112983, "- N/A -   "
19.12, 567.081, 0.03197985, NaN, NaN, NaN, 0.0335714, "- N/A -   "
19.32, 574.6512, 0.0322908, NaN, NaN, NaN, 0.0433376, "- N/A -   "
19.52, 583.1674, 0.0326463, NaN, NaN, NaN, 0.0335714, "- N/A -   "
19.72, 591.565, 0.0329934, NaN, NaN, NaN, 0.0286883, "- N/A -   "
19.92, 598.544, 0.0332877, NaN, NaN, NaN, 0.0445584, "- N/A -   "
20.12, 607.2967, 0.0336403, NaN, NaN, NaN, 0.03601294, "- N/A -   "
20.32, 615.9312, 0.0339958, NaN, NaN, NaN, 0.0274675, "- N/A -   "
20.52, 623.0281, 0.03429566, NaN, NaN, NaN, 0.04211683, "- N/A -   "
20.72, 631.189, 0.03462332, NaN, NaN, NaN, 0.0433376, "- N/A -   "
20.92, 640.2971, 0.03498985, NaN, NaN, NaN, 0.0286883, "- N/A -   "
21.12, 648.104, 0.0353036, NaN, NaN, NaN, 0.0372337, "- N/A -   "
21.32, 655.91, 0.03562017, NaN, NaN, NaN, 0.0445584, "- N/A -   "
21.52, 665.136, 0.0359923, NaN, NaN, NaN, 0.0286883, "- N/A -   "
21.72, 673.179, 0.0363171, NaN, NaN, NaN, 0.0323506, "- N/A -   "
21.92, 680.7491, 0.0366281, NaN, NaN, NaN, 0.04211683, "- N/A -   "
22.12, 689.5019, 0.0369697, NaN, NaN, NaN, 0.0384545, "- N/A -   "
22.32, 698.0181, 0.03731399, NaN, NaN, NaN, 0.0335714, "- N/A -   "
22.52, 706.1795, 0.03765, NaN, NaN, NaN, 0.0323506, "- N/A -   "
22.72, 713.7495, 0.0379554, NaN, NaN, NaN, 0.0445584, "- N/A -   "
22.92, 722.975, 0.0383192, NaN, NaN, NaN, 0.03112983, "- N/A -   "
23.12, 731.1367, 0.0386524, NaN, NaN, NaN, 0.03112983, "- N/A -   "
23.32, 738.588, 0.03895505, NaN, NaN, NaN, 0.0445584, "- N/A -   "
23.52, 747.46, 0.0393077, NaN, NaN, NaN, 0.0372337, "- N/A -   "
23.72, 756.2123, 0.0396548, NaN, NaN, NaN, 0.0299091, "- N/A -   "
23.92, 763.664, 0.03996579, NaN, NaN, NaN, 0.0396753, "- N/A -   "
24.12, 771.8254, 0.0402934, NaN, NaN, NaN, 0.0433376, "- N/A -   "
24.32, 781.17, 0.04066, NaN, NaN, NaN, 0.0286883, "- N/A -   "
24.52, 789.094, 0.0409793, NaN, NaN, NaN, 0.0347922, "- N/A -   "
24.72, 796.783, 0.0412875, NaN, NaN, NaN, 0.0445584, "- N/A -   "
24.92, 806.1268, 0.0416485, NaN, NaN, NaN, 0.0323506, "- N/A -   "
25.12, 814.288, 0.0419817, NaN, NaN, NaN, 0.0335714, "- N/A -   "
25.32, 822.331, 0.04229826, NaN, NaN, NaN, 0.0396753, "- N/A -   "
25.52, 830.9658, 0.0426398, NaN, NaN, NaN, 0.03601294, "- N/A -   "
25.72, 839.719, 0.0429841, NaN, NaN, NaN, 0.03112983, "- N/A -   "
25.92, 847.9982, 0.0433118, NaN, NaN, NaN, 0.0335714, "- N/A -   "
26.12, 856.0413, 0.0436311, NaN, NaN, NaN, 0.04089605, "- N/A -   "
26.32, 865.0307, 0.04398097, NaN, NaN, NaN, 0.0347922, "- N/A -   "
26.52, 873.783, 0.0443225, NaN, NaN, NaN, 0.0299091, "- N/A -   "
26.72, 881.1169, 0.0446224, NaN, NaN, NaN, 0.0445584, "- N/A -   "
26.92, 890.3427, 0.04497505, NaN, NaN, NaN, 0.03601294, "- N/A -   "
27.12, 899.3321, 0.0453277, NaN, NaN, NaN, 0.0286883, "- N/A -   "
27.32, 906.9021, 0.0456331, NaN, NaN, NaN, 0.04089605, "- N/A -   "
27.52, 915.4183, 0.0459608, NaN, NaN, NaN, 0.04211683, "- N/A -   "
27.72, 924.408, 0.0463134, NaN, NaN, NaN, 0.0335714, "- N/A -   "
27.92, 932.8056, 0.0466383, NaN, NaN, NaN, 0.0372337, "- N/A -   "
28.12, 940.7304, 0.0469549, NaN, NaN, NaN, 0.0445584, "- N/A -   "
28.32, 950.3111, 0.0473214, NaN, NaN, NaN, 0.0299091, "- N/A -   "
28.52, 958.8274, 0.0476491, NaN, NaN, NaN, 0.0323506, "- N/A -   "
28.72, 966.5156, 0.0479601, NaN, NaN, NaN, 0.04211683, "- N/A -   "
28.92, 975.387, 0.0483016, NaN, NaN, NaN, 0.0384545, "- N/A -   "
29.12, 984.2578, 0.0486459, NaN, NaN, NaN, 0.0335714, "- N/A -   "
29.192, 987.2148, 0.0487653, NaN, NaN, NaN, 0.0347922, "- N/A -   "