Folder: DigitalTwins-Machine-Learning/2_Tensile_Data (part 40)

File: Hamel_ForceTest_Bolt10_Test2.csv
Time, Load (lb), Position (in), AxialStrain (in), TransverseStrain (in), Auxiliary (), Control Out (V), Stress (psi)
0.0, 1.29742, 0.0, NaN, NaN, NaN, 0.095831, "- N/A -   "
0.01, 1.76921, 3.054427E-5, NaN, NaN, NaN, 0.09094793, "- N/A -   "
0.02, 2.12305, 6.108854E-5, NaN, NaN, NaN, 0.084844, "- N/A -   "
0.03, 2.712792, 8.607931E-5, NaN, NaN, NaN, 0.0799609, "- N/A -   "
0.04, 3.06663, 0.000113847, NaN, NaN, NaN, 0.0750778, "- N/A -   "
0.05, 3.30253, 1.388376E-4, NaN, NaN, NaN, 0.07141549, "- N/A -   "
0.06, 3.65637, 0.000163828, NaN, NaN, NaN, 0.06775316, "- N/A -   "
0.07, 3.89227, 0.000186042, NaN, NaN, NaN, 0.0653116, "- N/A -   "
0.08, 4.246109, 0.000211033, NaN, NaN, NaN, 0.06287005, "- N/A -   "
0.09, 4.717899, 0.000233247, NaN, NaN, NaN, 0.0592077, "- N/A -   "
0.1, 4.83585, 2.582379E-4, NaN, NaN, NaN, 0.0555454, "- N/A -   "
0.11, 5.307636, 2.832287E-4, NaN, NaN, NaN, 0.05188305, "- N/A -   "
0.12, 5.54353, 3.054427E-4, NaN, NaN, NaN, 0.0494415, "- N/A -   "
0.13, 5.779426, 0.000330433, NaN, NaN, NaN, 0.04699994, "- N/A -   "
0.14, 6.01532, 0.000349871, NaN, NaN, NaN, 0.0445584, "- N/A -   "
0.15, 6.369163, 3.69308E-4, NaN, NaN, NaN, 0.0433376, "- N/A -   "
0.16, 6.60506, 0.000391522, NaN, NaN, NaN, 0.04211683, "- N/A -   "
0.17, 6.84095, 0.000410959, NaN, NaN, NaN, 0.04089605, "- N/A -   "
0.18, 7.07685, 0.000430397, NaN, NaN, NaN, 0.0396753, "- N/A -   "
0.19, 7.312743, 0.000449834, NaN, NaN, NaN, 0.0372337, "- N/A -   "
0.2, 7.548638, 4.664943E-4, NaN, NaN, NaN, 0.0372337, "- N/A -   "
0.21, 7.666586, 0.000485932, NaN, NaN, NaN, 0.0372337, "- N/A -   "
0.22, 7.90248, 5.053688E-4, NaN, NaN, NaN, 0.0347922, "- N/A -   "
0.23, 8.138375, 0.000522029, NaN, NaN, NaN, 0.0347922, "- N/A -   "
0.24, 8.492218, 5.414666E-4, NaN, NaN, NaN, 0.0335714, "- N/A -   "
0.25, 8.728113, 5.581271E-4, NaN, NaN, NaN, 0.0335714, "- N/A -   "
0.26, 8.964007, 5.747876E-4, NaN, NaN, NaN, 0.0347922, "- N/A -   "
0.27, 9.081955, 0.000588671, NaN, NaN, NaN, 0.0347922, "- N/A -   "
0.28, 9.199903, 0.000602555, NaN, NaN, NaN, 0.03601294, "- N/A -   "
0.29, 9.435798, 0.000619216, NaN, NaN, NaN, 0.03601294, "- N/A -   "
0.3, 9.671693, 0.000635876, NaN, NaN, NaN, 0.0372337, "- N/A -   "
0.31, 9.78964, 6.497599E-4, NaN, NaN, NaN, 0.0372337, "- N/A -   "
0.32, 10.0255, 6.636437E-4, NaN, NaN, NaN, 0.0384545, "- N/A -   "
0.33, 10.26143, 6.803042E-4, NaN, NaN, NaN, 0.0384545, "- N/A -   "
0.34, 10.3794, 0.000694188, NaN, NaN, NaN, 0.0396753, "- N/A -   "
0.35, 10.6153, 7.080717E-4, NaN, NaN, NaN, 0.04089605, "- N/A -   "
0.36, 10.73322, 7.219555E-4, NaN, NaN, NaN, 0.04211683, "- N/A -   "
0.37, 10.8512, 0.000735839, NaN, NaN, NaN, 0.0433376, "- N/A -   "
0.38, 11.0871, 0.0007525, NaN, NaN, NaN, 0.0433376, "- N/A -   "
0.39, 11.323, 7.663835E-4, NaN, NaN, NaN, 0.0445584, "- N/A -   "
0.4, 11.4409, 0.000783044, NaN, NaN, NaN, 0.04577916, "- N/A -   "
0.41, 11.7947, 7.997045E-4, NaN, NaN, NaN, 0.04577916, "- N/A -   "
0.42, 11.9127, 8.16365E-4, NaN, NaN, NaN, 0.0445584, "- N/A -   "
0.43, 12.14859, 0.000833026, NaN, NaN, NaN, 0.04577916, "- N/A -   "
0.52, 14.0357, 9.801934E-4, NaN, NaN, NaN, 0.04577916, "- N/A -   "
0.61, 16.27675, 0.0011468, NaN, NaN, NaN, 0.0384545, "- N/A -   "
0.7, 18.6357, 0.00132451, NaN, NaN, NaN, 0.0274675, "- N/A -   "
0.79, 20.52286, 0.00146335, NaN, NaN, NaN, 0.03112983, "- N/A -   "
0.88, 22.528, 0.00160774, NaN, NaN, NaN, 0.0347922, "- N/A -   "
0.97, 24.29718, 0.00174658, NaN, NaN, NaN, 0.0396753, "- N/A -   "
1.06, 26.3023, 0.00189374, NaN, NaN, NaN, 0.04089605, "- N/A -   "
1.15, 28.3074, 0.00203536, NaN, NaN, NaN, 0.0433376, "- N/A -   "
1.24, 30.6663, 0.00219919, NaN, NaN, NaN, 0.0372337, "- N/A -   "
1.33, 33.02529, 0.002363016, NaN, NaN, NaN, 0.0323506, "- N/A -   "
1.42, 35.1483, 0.00251018, NaN, NaN, NaN, 0.0335714, "- N/A -   "
1.51, 37.3893, 0.00265457, NaN, NaN, NaN, 0.0347922, "- N/A -   "
1.6, 39.7483, 0.00281285, NaN, NaN, NaN, 0.0323506, "- N/A -   "
1.69, 41.8714, 0.00294891, NaN, NaN, NaN, 0.0372337, "- N/A -   "
1.78, 43.87646, 0.003084971, NaN, NaN, NaN, 0.0445584, "- N/A -   "
1.87, 46.3534, 0.00324047, NaN, NaN, NaN, 0.04211683, "- N/A -   "
1.96, 49.0661, 0.00340152, NaN, NaN, NaN, 0.0384545, "- N/A -   "
2.05, 51.4251, 0.00355424, NaN, NaN, NaN, 0.03601294, "- N/A -   "
2.14, 54.0199, 0.00370696, NaN, NaN, NaN, 0.0347922, "- N/A -   "
2.23, 56.37889, 0.00385691, NaN, NaN, NaN, 0.03601294, "- N/A -   "
2.32, 58.9737, 0.004006853, NaN, NaN, NaN, 0.0347922, "- N/A -   "
2.41, 61.56858, 0.004154021, NaN, NaN, NaN, 0.0372337, "- N/A -   "
2.5, 63.92753, 0.004295635, NaN, NaN, NaN, 0.04089605, "- N/A -   "
2.59, 66.40443, 0.004440026, NaN, NaN, NaN, 0.0433376, "- N/A -   "
2.68, 69.35311, 0.004601078, NaN, NaN, NaN, 0.0384545, "- N/A -   "
2.77, 72.1838, 0.004764906, NaN, NaN, NaN, 0.0323506, "- N/A -   "
2.86, 74.66075, 0.004909297, NaN, NaN, NaN, 0.0347922, "- N/A -   "
2.95, 77.49149, 0.005067572, NaN, NaN, NaN, 0.0299091, "- N/A -   "
3.04, 79.96838, 0.00520919, NaN, NaN, NaN, 0.0335714, "- N/A -   "
3.13, 82.20939, 0.00533969, NaN, NaN, NaN, 0.04211683, "- N/A -   "
3.22, 84.56834, 0.00547575, NaN, NaN, NaN, 0.0482207, "- N/A -   "
3.31, 87.51702, 0.00564236, NaN, NaN, NaN, 0.04089605, "- N/A -   "
3.4, 90.4657, 0.00581174, NaN, NaN, NaN, 0.0323506, "- N/A -   "
3.49, 93.2965, 0.00596724, NaN, NaN, NaN, 0.03112983, "- N/A -   "
3.58, 95.8913, 0.006114407, NaN, NaN, NaN, 0.03112983, "- N/A -   "
3.67, 98.4861, 0.00626435, NaN, NaN, NaN, 0.03112983, "- N/A -   "
3.76, 100.6092, 0.006392082, NaN, NaN, NaN, 0.04089605, "- N/A -   "
3.85, 102.968, 0.0065337, NaN, NaN, NaN, 0.0445584, "- N/A -   "
3.94, 105.681, 0.006689195, NaN, NaN, NaN, 0.04211683, "- N/A -   "
4.03, 108.394, 0.00684747, NaN, NaN, NaN, 0.0396753, "- N/A -   "
4.12, 111.342, 0.00701685, NaN, NaN, NaN, 0.0299091, "- N/A -   "
4.21, 113.819, 0.0071668, NaN, NaN, NaN, 0.0299091, "- N/A -   "
4.3, 116.178, 0.00731119, NaN, NaN, NaN, 0.0323506, "- N/A -   "
4.39, 118.419, 0.007452802, NaN, NaN, NaN, 0.03601294, "- N/A -   "
4.48, 120.66, 0.007594416, NaN, NaN, NaN, 0.0396753, "- N/A -   "
4.57, 122.665, 0.0077277, NaN, NaN, NaN, 0.04699994, "- N/A -   "
4.66, 125.378, 0.007891529, NaN, NaN, NaN, 0.04089605, "- N/A -   "
4.75, 128.209, 0.008063687, NaN, NaN, NaN, 0.0323506, "- N/A -   "
4.84, 130.568, 0.008213632, NaN, NaN, NaN, 0.0323506, "- N/A -   "
4.93, 132.6909, 0.00835247, NaN, NaN, NaN, 0.03601294, "- N/A -   "
5.02, 135.4037, 0.008513521, NaN, NaN, NaN, 0.03112983, "- N/A -   "
5.11, 137.527, 0.008649582, NaN, NaN, NaN, 0.0372337, "- N/A -   "
5.2, 139.532, 0.00878842, NaN, NaN, NaN, 0.0433376, "- N/A -   "
5.29, 142.009, 0.008943918, NaN, NaN, NaN, 0.0396753, "- N/A -   "
5.38, 144.604, 0.009102193, NaN, NaN, NaN, 0.0372337, "- N/A -   "
5.47, 146.8446, 0.009252137, NaN, NaN, NaN, 0.03601294, "- N/A -   "
5.56, 149.557, 0.009413189, NaN, NaN, NaN, 0.03112983, "- N/A -   "
5.65, 151.798, 0.009563133, NaN, NaN, NaN, 0.03112983, "- N/A -   "
5.74, 154.0394, 0.009710302, NaN, NaN, NaN, 0.0335714, "- N/A -   "
5.83, 156.162, 0.009854692, NaN, NaN, NaN, 0.0347922, "- N/A -   "
5.92, 158.403, 0.00999353, NaN, NaN, NaN, 0.0396753, "- N/A -   "
6.01, 160.644, 0.0101324, NaN, NaN, NaN, 0.0445584, "- N/A -   "
6.1, 163.357, 0.010299, NaN, NaN, NaN, 0.0372337, "- N/A -   "
[...]
25.81, 896.02, 0.0431507, NaN, NaN, NaN, 0.0372337, "- N/A -   "
25.91, 900.2783, 0.0433201, NaN, NaN, NaN, 0.03601294, "- N/A -   "
26.01, 904.5365, 0.04349226, NaN, NaN, NaN, 0.0347922, "- N/A -   "
26.11, 908.9129, 0.0436644, NaN, NaN, NaN, 0.03112983, "- N/A -   "
26.21, 913.171, 0.0438338, NaN, NaN, NaN, 0.03112983, "- N/A -   "
26.31, 916.8377, 0.0439865, NaN, NaN, NaN, 0.0372337, "- N/A -   "
26.41, 920.8592, 0.0441448, NaN, NaN, NaN, 0.0396753, "- N/A -   "
26.51, 924.8808, 0.0443031, NaN, NaN, NaN, 0.0433376, "- N/A -   "
26.61, 929.257, 0.04447801, NaN, NaN, NaN, 0.0396753, "- N/A -   "
26.71, 933.397, 0.04464739, NaN, NaN, NaN, 0.0396753, "- N/A -   "
26.81, 938.01, 0.0448251, NaN, NaN, NaN, 0.0335714, "- N/A -   "
26.91, 942.505, 0.0450028, NaN, NaN, NaN, 0.0286883, "- N/A -   "
27.01, 945.935, 0.0451472, NaN, NaN, NaN, 0.0384545, "- N/A -   "
27.11, 949.838, 0.04529993, NaN, NaN, NaN, 0.0445584, "- N/A -   "
27.21, 954.5693, 0.04548597, NaN, NaN, NaN, 0.0372337, "- N/A -   "
27.31, 959.064, 0.04566368, NaN, NaN, NaN, 0.03112983, "- N/A -   "
27.41, 963.559, 0.04583584, NaN, NaN, NaN, 0.0286883, "- N/A -   "
27.51, 967.58, 0.0460024, NaN, NaN, NaN, 0.0286883, "- N/A -   "
27.61, 971.2469, 0.04615239, NaN, NaN, NaN, 0.0372337, "- N/A -   "
27.71, 974.9136, 0.04629956, NaN, NaN, NaN, 0.0445584, "- N/A -   "
27.81, 979.1717, 0.0464662, NaN, NaN, NaN, 0.0445584, "- N/A -   "
27.91, 983.6663, 0.0466439, NaN, NaN, NaN, 0.0396753, "- N/A -   "
28.01, 988.516, 0.0468327, NaN, NaN, NaN, 0.0299091, "- N/A -   "
28.11, 992.774, 0.0469993, NaN, NaN, NaN, 0.0299091, "- N/A -   "
28.21, 996.677, 0.047152, NaN, NaN, NaN, 0.03601294, "- N/A -   "
28.31, 1000.7, 0.0473158, NaN, NaN, NaN, 0.0372337, "- N/A -   "
28.41, 1004.72, 0.0474714, NaN, NaN, NaN, 0.04211683, "- N/A -   "
28.51, 1008.98, 0.04764073, NaN, NaN, NaN, 0.04089605, "- N/A -   "
28.61, 1013.954, 0.0478295, NaN, NaN, NaN, 0.03112983, "- N/A -   "
28.71, 1018.13, 0.0479962, NaN, NaN, NaN, 0.03112983, "- N/A -   "
28.81, 1022.06, 0.04815165, NaN, NaN, NaN, 0.03601294, "- N/A -   "
28.91, 1026.83, 0.0483294, NaN, NaN, NaN, 0.0323506, "- N/A -   "
29.01, 1030.53, 0.0484821, NaN, NaN, NaN, 0.0396753, "- N/A -   "
29.11, 1034.58, 0.04864314, NaN, NaN, NaN, 0.04211683, "- N/A -   "
29.21, 1038.997, 0.04881252, NaN, NaN, NaN, 0.04089605, "- N/A -   "
29.31, 1043.29, 0.0489819, NaN, NaN, NaN, 0.0396753, "- N/A -   "
29.41, 1047.7, 0.04915406, NaN, NaN, NaN, 0.03601294, "- N/A -   "
29.51, 1052, 0.04932344, NaN, NaN, NaN, 0.03601294, "- N/A -   "
29.61, 1056.17, 0.04948727, NaN, NaN, NaN, 0.03601294, "- N/A -   "
29.71, 1060.22, 0.0496511, NaN, NaN, NaN, 0.0372337, "- N/A -   "
29.81, 1064.28, 0.0498094, NaN, NaN, NaN, 0.04089605, "- N/A -   "
29.91, 1068.57, 0.04997598, NaN, NaN, NaN, 0.04089605, "- N/A -   "
30.01, 1073.22, 0.0501592, NaN, NaN, NaN, 0.0335714, "- N/A -   "
30.11, 1077.63, 0.0503286, NaN, NaN, NaN, 0.0323506, "- N/A -   "
30.21, 1081.69, 0.05049523, NaN, NaN, NaN, 0.0323506, "- N/A -   "
30.31, 1086.22, 0.05066739, NaN, NaN, NaN, 0.0299091, "- N/A -   "
30.41, 1089.44, 0.0508062, NaN, NaN, NaN, 0.04211683, "- N/A -   "
30.51, 1093.26, 0.05095617, NaN, NaN, NaN, 0.0494415, "- N/A -   "
30.61, 1097.91, 0.0511394, NaN, NaN, NaN, 0.04211683, "- N/A -   "
30.71, 1102.56, 0.0513227, NaN, NaN, NaN, 0.0347922, "- N/A -   "
30.81, 1107.209, 0.0515032, NaN, NaN, NaN, 0.0299091, "- N/A -   "
30.91, 1111.26, 0.0516642, NaN, NaN, NaN, 0.03112983, "- N/A -   "
31.01, 1114.96, 0.0518142, NaN, NaN, NaN, 0.0396753, "- N/A -   "
31.055, 1116.75, 0.0518836, NaN, NaN, NaN, 0.04089605, "- N/A -   "

File: Hamel_ForceTest_Bolt10_Test3.csv
Time, Load (lb), Position (in), AxialStrain (in), TransverseStrain (in), Auxiliary (), Control Out (V), Stress (psi)
0.0, 1.29742, 0.0, NaN, NaN, NaN, 0.105597, "- N/A -   "
0.01, 1.53332, 2.77675e-05, NaN, NaN, NaN, 0.100714, "- N/A -   "
0.02, 1.88716, 5.5535e-05, NaN, NaN, NaN, 0.095831, "- N/A -   "
0.03, 2.241, 8.05258E-5, NaN, NaN, NaN, 0.09338949, "- N/A -   "
0.04, 2.476897, 0.000105517, NaN, NaN, NaN, 0.0897272, "- N/A -   "
0.05, 2.712792, 0.000127731, NaN, NaN, NaN, 0.08606482, "- N/A -   "
0.06, 3.06663, 0.000152721, NaN, NaN, NaN, 0.08362327, "- N/A -   "
0.07, 3.30253, 0.000174935, NaN, NaN, NaN, 0.08118171, "- N/A -   "
0.08, 3.65637, 0.000197149, NaN, NaN, NaN, 0.07751938, "- N/A -   "
0.09, 4.010214, 0.00022214, NaN, NaN, NaN, 0.07385705, "- N/A -   "
0.1, 4.36406, 0.000244354, NaN, NaN, NaN, 0.07141549, "- N/A -   "
0.11, 4.59995, 0.000269345, NaN, NaN, NaN, 0.06775316, "- N/A -   "
0.12, 4.953794, 0.000291559, NaN, NaN, NaN, 0.0653116, "- N/A -   "
0.13, 5.307636, 3.165497E-4, NaN, NaN, NaN, 0.06164927, "- N/A -   "
0.14, 5.66148, 0.00034154, NaN, NaN, NaN, 0.0592077, "- N/A -   "
0.15, 6.01532, 3.637545E-4, NaN, NaN, NaN, 0.0555454, "- N/A -   "
0.16, 6.369163, 0.000388745, NaN, NaN, NaN, 0.0531038, "- N/A -   "
0.17, 6.60506, 4.081825E-4, NaN, NaN, NaN, 0.05066227, "- N/A -   "
0.18, 6.84095, 4.276198E-4, NaN, NaN, NaN, 0.0494415, "- N/A -   "
0.19, 7.1948, 0.000447057, NaN, NaN, NaN, 0.0482207, "- N/A -   "
0.2, 7.548638, 4.664943E-4, NaN, NaN, NaN, 0.04699994, "- N/A -   "
0.21, 7.784533, 0.000485932, NaN, NaN, NaN, 0.04577916, "- N/A -   "
0.22, 8.138375, 5.081456E-4, NaN, NaN, NaN, 0.0445584, "- N/A -   "
0.23, 8.37427, 5.248061E-4, NaN, NaN, NaN, 0.0433376, "- N/A -   "
0.24, 8.610166, 5.442434E-4, NaN, NaN, NaN, 0.04211683, "- N/A -   "
0.25, 8.728113, 0.000560904, NaN, NaN, NaN, 0.04211683, "- N/A -   "
0.26, 9.081955, 5.831179E-4, NaN, NaN, NaN, 0.04089605, "- N/A -   "
0.27, 9.31785, 0.000602555, NaN, NaN, NaN, 0.0396753, "- N/A -   "
0.28, 9.671693, 6.219924E-4, NaN, NaN, NaN, 0.0384545, "- N/A -   "
0.29, 9.907588, 0.000638653, NaN, NaN, NaN, 0.0372337, "- N/A -   "
0.3, 10.1435, 0.00065809, NaN, NaN, NaN, 0.03601294, "- N/A -   "
0.31, 10.4973, 6.803042E-4, NaN, NaN, NaN, 0.0335714, "- N/A -   "
0.32, 10.73322, 6.997415E-4, NaN, NaN, NaN, 0.0323506, "- N/A -   "
0.33, 10.9691, 7.219555E-4, NaN, NaN, NaN, 0.03112983, "- N/A -   "
0.34, 11.323, 7.38616E-4, NaN, NaN, NaN, 0.0299091, "- N/A -   "
0.35, 11.5589, 0.000758053, NaN, NaN, NaN, 0.0286883, "- N/A -   "
0.36, 11.9127, 0.000774714, NaN, NaN, NaN, 0.0286883, "- N/A -   "
0.37, 12.0306, 0.000791374, NaN, NaN, NaN, 0.0286883, "- N/A -   "
0.38, 12.2665, 8.080348E-4, NaN, NaN, NaN, 0.0286883, "- N/A -   "
0.39, 12.5024, 0.000821919, NaN, NaN, NaN, 0.0299091, "- N/A -   "
0.4, 12.6204, 8.38579E-4, NaN, NaN, NaN, 0.0299091, "- N/A -   "
0.41, 12.9742, 8.552396E-4, NaN, NaN, NaN, 0.0299091, "- N/A -   "
0.47, 14.1537, 0.000949649, NaN, NaN, NaN, 0.0323506, "- N/A -   "
0.53, 15.4511, 0.00103851, NaN, NaN, NaN, 0.0372337, "- N/A -   "
0.59, 16.5126, 0.00112458, NaN, NaN, NaN, 0.0433376, "- N/A -   "
0.65, 18.046, 0.00122177, NaN, NaN, NaN, 0.0445584, "- N/A -   "
0.71, 19.3434, 0.00132173, NaN, NaN, NaN, 0.0445584, "- N/A -   "
0.77, 20.7588, 0.001421697, NaN, NaN, NaN, 0.0445584, "- N/A -   "
0.83, 22.41, 0.00152721, NaN, NaN, NaN, 0.04211683, "- N/A -   "
0.89, 23.9433, 0.00165217, NaN, NaN, NaN, 0.0323506, "- N/A -   "
0.95, 25.4767, 0.00175491, NaN, NaN, NaN, 0.03112983, "- N/A -   "
1.01, 26.7741, 0.00185487, NaN, NaN, NaN, 0.0299091, "- N/A -   "
1.07, 28.1894, 0.00195206, NaN, NaN, NaN, 0.03112983, "- N/A -   "
1.13, 29.4869, 0.00204091, NaN, NaN, NaN, 0.03601294, "- N/A -   "
1.19, 31.0202, 0.00214365, NaN, NaN, NaN, 0.0347922, "- N/A -   "
1.25, 32.3176, 0.002238062, NaN, NaN, NaN, 0.0372337, "- N/A -   "
1.31, 33.3791, 0.00232136, NaN, NaN, NaN, 0.0445584, "- N/A -   "
1.37, 34.9125, 0.00242133, NaN, NaN, NaN, 0.0445584, "- N/A -   "
1.43, 36.5637, 0.00252962, NaN, NaN, NaN, 0.04089605, "- N/A -   "
1.49, 38.097, 0.00264347, NaN, NaN, NaN, 0.0347922, "- N/A -   "
1.55, 39.7483, 0.00275454, NaN, NaN, NaN, 0.0299091, "- N/A -   "
1.61, 41.04572, 0.002854501, NaN, NaN, NaN, 0.03112983, "- N/A -   "
1.67, 42.3431, 0.002943357, NaN, NaN, NaN, 0.0347922, "- N/A -   "
1.73, 43.87646, 0.00304332, NaN, NaN, NaN, 0.0347922, "- N/A -   "
1.79, 45.76362, 0.00315439, NaN, NaN, NaN, 0.03112983, "- N/A -   "
1.85, 47.179, 0.003243246, NaN, NaN, NaN, 0.0347922, "- N/A -   "
1.91, 48.7123, 0.003337656, NaN, NaN, NaN, 0.0372337, "- N/A -   "
1.97, 50.2456, 0.003426512, NaN, NaN, NaN, 0.04211683, "- N/A -   "
2.03, 52.25073, 0.00353481, NaN, NaN, NaN, 0.0384545, "- N/A -   "
2.09, 53.902, 0.00363199, NaN, NaN, NaN, 0.0396753, "- N/A -   "
2.15, 55.9071, 0.00373751, NaN, NaN, NaN, 0.0384545, "- N/A -   "
2.21, 57.6763, 0.00383747, NaN, NaN, NaN, 0.0372337, "- N/A -   "
2.27, 59.4455, 0.00394021, NaN, NaN, NaN, 0.0372337, "- N/A -   "
2.33, 61.2147, 0.0040374, NaN, NaN, NaN, 0.0372337, "- N/A -   "
2.39, 63.2198, 0.00414014, NaN, NaN, NaN, 0.03601294, "- N/A -   "
2.45, 65.107, 0.00424288, NaN, NaN, NaN, 0.0347922, "- N/A -   "
2.51, 66.99416, 0.004345617, NaN, NaN, NaN, 0.0335714, "- N/A -   "
2.57, 68.9993, 0.00444836, NaN, NaN, NaN, 0.0323506, "- N/A -   "
2.63, 70.88643, 0.004542766, NaN, NaN, NaN, 0.0347922, "- N/A -   "
2.69, 72.77359, 0.004634399, NaN, NaN, NaN, 0.0384545, "- N/A -   "
2.75, 74.5428, 0.00472881, NaN, NaN, NaN, 0.04211683, "- N/A -   "
2.81, 76.6659, 0.004825995, NaN, NaN, NaN, 0.04211683, "- N/A -   "
2.87, 78.90686, 0.004934288, NaN, NaN, NaN, 0.0384545, "- N/A -   "
2.93, 81.38376, 0.005050912, NaN, NaN, NaN, 0.0323506, "- N/A -   "
2.99, 83.27091, 0.005145321, NaN, NaN, NaN, 0.0335714, "- N/A -   "
3.05, 85.15807, 0.005239731, NaN, NaN, NaN, 0.03601294, "- N/A -   "
3.11, 87.39908, 0.005350801, NaN, NaN, NaN, 0.0323506, "- N/A -   "
3.17, 89.6401, 0.00545632, NaN, NaN, NaN, 0.0286883, "- N/A -   "
3.23, 91.52724, 0.00555073, NaN, NaN, NaN, 0.03112983, "- N/A -   "
3.29, 93.2965, 0.00564236, NaN, NaN, NaN, 0.0347922, "- N/A -   "
3.35, 95.06567, 0.00573122, NaN, NaN, NaN, 0.04089605, "- N/A -   "
3.41, 96.95282, 0.005820072, NaN, NaN, NaN, 0.0445584, "- N/A -   "
3.47, 98.9579, 0.00592281, NaN, NaN, NaN, 0.0445584, "- N/A -   "
3.53, 101.199, 0.006031105, NaN, NaN, NaN, 0.04211683, "- N/A -   "
3.59, 103.086, 0.006136622, NaN, NaN, NaN, 0.0384545, "- N/A -   "
3.65, 105.209, 0.006244915, NaN, NaN, NaN, 0.0347922, "- N/A -   "
3.71, 107.214, 0.006344878, NaN, NaN, NaN, 0.0347922, "- N/A -   "
3.77, 109.219, 0.00645317, NaN, NaN, NaN, 0.03112983, "- N/A -   "
3.83, 111.107, 0.006555911, NaN, NaN, NaN, 0.03112983, "- N/A -   "
3.89, 112.876, 0.006650321, NaN, NaN, NaN, 0.0323506, "- N/A -   "
3.95, 114.527, 0.0067364, NaN, NaN, NaN, 0.0384545, "- N/A -   "
4.01, 116.06, 0.00682248, NaN, NaN, NaN, 0.0445584, "- N/A -   "
4.07, 117.947, 0.00692244, NaN, NaN, NaN, 0.0445584, "- N/A -   "
4.13, 119.717, 0.00701963, NaN, NaN, NaN, 0.04577916, "- N/A -   "
4.19, 121.84, 0.00712515, NaN, NaN, NaN, 0.0433376, "- N/A -   "
4.25, 123.845, 0.007241769, NaN, NaN, NaN, 0.03601294, "- N/A -   "
4.31, 126.086, 0.00735562, NaN, NaN, NaN, 0.0299091, "- N/A -   "
[...]
21.36, 738.47, 0.0357646, NaN, NaN, NaN, 0.0323506, "- N/A -   "
21.51, 744.6208, 0.0360172, NaN, NaN, NaN, 0.03112983, "- N/A -   "
21.66, 750.6531, 0.03625605, NaN, NaN, NaN, 0.0384545, "- N/A -   "
21.81, 756.331, 0.0364893, NaN, NaN, NaN, 0.0445584, "- N/A -   "
21.96, 763.309, 0.0367614, NaN, NaN, NaN, 0.0347922, "- N/A -   "
22.11, 769.341, 0.0370141, NaN, NaN, NaN, 0.0335714, "- N/A -   "
22.26, 775.8469, 0.0372696, NaN, NaN, NaN, 0.03112983, "- N/A -   "
22.41, 781.5244, 0.03750281, NaN, NaN, NaN, 0.0384545, "- N/A -   "
22.56, 787.3201, 0.03774161, NaN, NaN, NaN, 0.0433376, "- N/A -   "
22.71, 794.0622, 0.0380054, NaN, NaN, NaN, 0.0372337, "- N/A -   "
22.86, 800.331, 0.03826364, NaN, NaN, NaN, 0.0335714, "- N/A -   "
23.01, 806.245, 0.038508, NaN, NaN, NaN, 0.0372337, "- N/A -   "
23.16, 812.3957, 0.03875235, NaN, NaN, NaN, 0.0396753, "- N/A -   "
23.31, 818.428, 0.0389967, NaN, NaN, NaN, 0.04211683, "- N/A -   "
23.46, 825.4066, 0.03926883, NaN, NaN, NaN, 0.0323506, "- N/A -   "
23.61, 831.5572, 0.03952151, NaN, NaN, NaN, 0.0299091, "- N/A -   "
23.76, 837.5895, 0.03976309, NaN, NaN, NaN, 0.0335714, "- N/A -   "
23.91, 842.7938, 0.0399825, NaN, NaN, NaN, 0.0482207, "- N/A -   "
24.06, 850.009, 0.0402629, NaN, NaN, NaN, 0.0335714, "- N/A -   "
24.21, 856.278, 0.04051559, NaN, NaN, NaN, 0.0323506, "- N/A -   "
24.36, 862.4285, 0.04076272, NaN, NaN, NaN, 0.0335714, "- N/A -   "
24.51, 867.9877, 0.0409876, NaN, NaN, NaN, 0.0445584, "- N/A -   "
24.66, 874.3748, 0.0412459, NaN, NaN, NaN, 0.04211683, "- N/A -   "
24.81, 881.4717, 0.0415263, NaN, NaN, NaN, 0.0274675, "- N/A -   "
24.96, 887.504, 0.0417651, NaN, NaN, NaN, 0.0335714, "- N/A -   "
25.11, 893.655, 0.0420095, NaN, NaN, NaN, 0.0347922, "- N/A -   "
25.26, 899.569, 0.0422427, NaN, NaN, NaN, 0.0433376, "- N/A -   "
25.41, 906.429, 0.04251207, NaN, NaN, NaN, 0.0335714, "- N/A -   "
25.56, 912.106, 0.04274532, NaN, NaN, NaN, 0.04089605, "- N/A -   "
25.71, 918.9667, 0.0430147, NaN, NaN, NaN, 0.0323506, "- N/A -   "
25.86, 924.8808, 0.0432479, NaN, NaN, NaN, 0.0396753, "- N/A -   "
26.01, 931.3862, 0.0435034, NaN, NaN, NaN, 0.0384545, "- N/A -   "
26.16, 937.7734, 0.04376161, NaN, NaN, NaN, 0.03601294, "- N/A -   "
26.31, 944.2788, 0.0440171, NaN, NaN, NaN, 0.0323506, "- N/A -   "
26.46, 950.666, 0.04426698, NaN, NaN, NaN, 0.0323506, "- N/A -   "
26.61, 956.2252, 0.0444947, NaN, NaN, NaN, 0.0433376, "- N/A -   "
26.76, 962.612, 0.044739, NaN, NaN, NaN, 0.0445584, "- N/A -   "
26.91, 969.473, 0.0450084, NaN, NaN, NaN, 0.03601294, "- N/A -   "
27.06, 976.2146, 0.0452749, NaN, NaN, NaN, 0.0286883, "- N/A -   "
27.21, 981.892, 0.0454999, NaN, NaN, NaN, 0.04089605, "- N/A -   "
27.36, 987.924, 0.04573866, NaN, NaN, NaN, 0.0445584, "- N/A -   "
27.51, 995.2579, 0.04601911, NaN, NaN, NaN, 0.03112983, "- N/A -   "
27.66, 1001.645, 0.0462718, NaN, NaN, NaN, 0.0299091, "- N/A -   "
27.81, 1007.559, 0.0465078, NaN, NaN, NaN, 0.03601294, "- N/A -   "
27.96, 1013.477, 0.04674384, NaN, NaN, NaN, 0.0433376, "- N/A -   "
28.11, 1020.04, 0.04699375, NaN, NaN, NaN, 0.04211683, "- N/A -   "
28.26, 1027.31, 0.0472742, NaN, NaN, NaN, 0.0299091, "- N/A -   "
28.41, 1033.27, 0.0475074, NaN, NaN, NaN, 0.03601294, "- N/A -   "
28.56, 1039.71, 0.04775458, NaN, NaN, NaN, 0.0384545, "- N/A -   "
28.71, 1045.44, 0.0479878, NaN, NaN, NaN, 0.0445584, "- N/A -   "
28.86, 1053.07, 0.04827661, NaN, NaN, NaN, 0.0286883, "- N/A -   "
29.01, 1059.03, 0.0485126, NaN, NaN, NaN, 0.0347922, "- N/A -   "
29.16, 1065.35, 0.0487598, NaN, NaN, NaN, 0.0347922, "- N/A -   "
29.237, 1068.33, 0.0488792, NaN, NaN, NaN, 0.0396753, "- N/A -   "