Folder: DigitalTwins-Machine-Learning/2_Tensile_Data (part 33)

File: Hamel_ForceTest_Bolt8_Test10.csv
Time, Load (lb), Position (in), AxialStrain (in), TransverseStrain (in), Auxiliary (), Control Out (V), Stress (psi)
0.0, 14.5075, 0.0, NaN, NaN, NaN, -0.007935055, "- N/A -   "
0.01, 14.5075, 2.776752E-6, NaN, NaN, NaN, -6.103888E-4, "- N/A -   "
0.02, 14.5075, 2.776752E-6, NaN, NaN, NaN, 0.006714277, "- N/A -   "
0.03, 14.5075, 5.553504E-6, NaN, NaN, NaN, 0.0238052, "- N/A -   "
0.04, 14.5075, 8.330256E-6, NaN, NaN, NaN, 0.04211683, "- N/A -   "
0.05, 14.7434, 1.94373e-05, NaN, NaN, NaN, 0.05676616, "- N/A -   "
0.06, 15.0973, 3.3321e-05, NaN, NaN, NaN, 0.0701947, "- N/A -   "
0.07, 15.4511, 5.27583e-05, NaN, NaN, NaN, 0.08118171, "- N/A -   "
0.08, 16.0409, 7.774905E-5, NaN, NaN, NaN, 0.0897272, "- N/A -   "
0.09, 16.6306, 0.000105517, NaN, NaN, NaN, 0.09705182, "- N/A -   "
0.1, 17.3383, 0.000133284, NaN, NaN, NaN, 0.104376, "- N/A -   "
0.11, 17.928, 0.000166605, NaN, NaN, NaN, 0.09705182, "- N/A -   "
0.12, 18.6357, 0.000199926, NaN, NaN, NaN, 0.09094793, "- N/A -   "
0.13, 19.2254, 0.000227694, NaN, NaN, NaN, 0.08606482, "- N/A -   "
0.14, 19.8152, 0.000255461, NaN, NaN, NaN, 0.08118171, "- N/A -   "
0.15, 20.4049, 2.776752E-4, NaN, NaN, NaN, 0.07751938, "- N/A -   "
0.16, 20.99465, 2.998892E-4, NaN, NaN, NaN, 0.0750778, "- N/A -   "
0.17, 21.3485, 3.221032E-4, NaN, NaN, NaN, 0.07263627, "- N/A -   "
0.18, 21.7023, 0.000344317, NaN, NaN, NaN, 0.07141549, "- N/A -   "
0.19, 22.0562, 3.637545E-4, NaN, NaN, NaN, 0.0689739, "- N/A -   "
0.2, 22.41, 0.000383192, NaN, NaN, NaN, 0.06775316, "- N/A -   "
0.21, 22.88181, 0.000402629, NaN, NaN, NaN, 0.06775316, "- N/A -   "
0.22, 23.2357, 0.000422066, NaN, NaN, NaN, 0.0653116, "- N/A -   "
0.23, 23.7074, 0.000441504, NaN, NaN, NaN, 0.0653116, "- N/A -   "
0.24, 24.1792, 0.000458164, NaN, NaN, NaN, 0.0640908, "- N/A -   "
0.25, 24.4151, 4.776013E-4, NaN, NaN, NaN, 0.06287005, "- N/A -   "
0.26, 24.769, 4.970386E-4, NaN, NaN, NaN, 0.06164927, "- N/A -   "
0.27, 25.2408, 5.164758E-4, NaN, NaN, NaN, 0.0604285, "- N/A -   "
0.28, 25.5946, 5.359131E-4, NaN, NaN, NaN, 0.0604285, "- N/A -   "
0.29, 26.0664, 5.553504E-4, NaN, NaN, NaN, 0.0592077, "- N/A -   "
0.3, 26.4202, 5.747876E-4, NaN, NaN, NaN, 0.05676616, "- N/A -   "
0.31, 26.7741, 0.000597002, NaN, NaN, NaN, 0.0543246, "- N/A -   "
0.32, 27.2459, 0.000619216, NaN, NaN, NaN, 0.0531038, "- N/A -   "
0.33, 27.7177, 6.414297E-4, NaN, NaN, NaN, 0.05066227, "- N/A -   "
0.34, 28.1894, 6.608669E-4, NaN, NaN, NaN, 0.0482207, "- N/A -   "
0.35, 28.6612, 6.803042E-4, NaN, NaN, NaN, 0.04699994, "- N/A -   "
0.36, 28.89713, 6.997415E-4, NaN, NaN, NaN, 0.04577916, "- N/A -   "
0.37, 29.251, 7.191787E-4, NaN, NaN, NaN, 0.0445584, "- N/A -   "
0.38, 29.7228, 7.413927E-4, NaN, NaN, NaN, 0.0433376, "- N/A -   "
0.39, 30.0766, 7.6083E-4, NaN, NaN, NaN, 0.04211683, "- N/A -   "
0.4, 30.4304, 7.774905E-4, NaN, NaN, NaN, 0.04089605, "- N/A -   "
0.44, 31.9638, 0.000849686, NaN, NaN, NaN, 0.0384545, "- N/A -   "
0.48, 33.2612, 0.000919105, NaN, NaN, NaN, 0.0372337, "- N/A -   "
0.52, 34.7945, 9.968539E-4, NaN, NaN, NaN, 0.0335714, "- N/A -   "
0.56, 36.44577, 0.00106627, NaN, NaN, NaN, 0.03112983, "- N/A -   "
0.6, 37.74319, 0.00113291, NaN, NaN, NaN, 0.03112983, "- N/A -   "
0.64, 39.04061, 0.00119956, NaN, NaN, NaN, 0.03112983, "- N/A -   "
0.68, 40.33803, 0.00126342, NaN, NaN, NaN, 0.0323506, "- N/A -   "
0.72, 41.51751, 0.00132173, NaN, NaN, NaN, 0.03601294, "- N/A -   "
0.76, 42.8149, 0.0013856, NaN, NaN, NaN, 0.0372337, "- N/A -   "
0.8, 43.87646, 0.001443911, NaN, NaN, NaN, 0.04211683, "- N/A -   "
0.84, 45.05593, 0.001499446, NaN, NaN, NaN, 0.04577916, "- N/A -   "
0.88, 46.5893, 0.00156609, NaN, NaN, NaN, 0.04577916, "- N/A -   "
0.92, 48.00462, 0.00163551, NaN, NaN, NaN, 0.0445584, "- N/A -   "
0.96, 49.6559, 0.0017077, NaN, NaN, NaN, 0.04211683, "- N/A -   "
1, 51.0713, 0.00177712, NaN, NaN, NaN, 0.04089605, "- N/A -   "
1.04, 52.48662, 0.00184932, NaN, NaN, NaN, 0.0384545, "- N/A -   "
1.08, 54.13789, 0.00192707, NaN, NaN, NaN, 0.0347922, "- N/A -   "
1.12, 55.6712, 0.00199926, NaN, NaN, NaN, 0.03112983, "- N/A -   "
1.16, 57.32247, 0.00207146, NaN, NaN, NaN, 0.0286883, "- N/A -   "
1.2, 58.7378, 0.00214088, NaN, NaN, NaN, 0.0274675, "- N/A -   "
1.24, 60.15321, 0.002204741, NaN, NaN, NaN, 0.0286883, "- N/A -   "
1.28, 61.56858, 0.00226583, NaN, NaN, NaN, 0.03112983, "- N/A -   "
1.32, 62.866, 0.00232969, NaN, NaN, NaN, 0.0323506, "- N/A -   "
1.36, 64.04548, 0.00239356, NaN, NaN, NaN, 0.0347922, "- N/A -   "
1.4, 65.3429, 0.00245465, NaN, NaN, NaN, 0.0372337, "- N/A -   "
1.44, 66.87622, 0.00252129, NaN, NaN, NaN, 0.0372337, "- N/A -   "
1.48, 68.17364, 0.0025796, NaN, NaN, NaN, 0.0396753, "- N/A -   "
1.52, 69.47106, 0.00264347, NaN, NaN, NaN, 0.04089605, "- N/A -   "
1.56, 70.88643, 0.00270456, NaN, NaN, NaN, 0.0433376, "- N/A -   "
1.6, 72.06591, 0.00276564, NaN, NaN, NaN, 0.04577916, "- N/A -   "
1.64, 73.71717, 0.00283229, NaN, NaN, NaN, 0.04577916, "- N/A -   "
1.68, 75.48638, 0.00291281, NaN, NaN, NaN, 0.04089605, "- N/A -   "
1.72, 77.0197, 0.002987785, NaN, NaN, NaN, 0.0372337, "- N/A -   "
1.76, 78.67096, 0.00305998, NaN, NaN, NaN, 0.0335714, "- N/A -   "
1.8, 80.32223, 0.00313218, NaN, NaN, NaN, 0.0323506, "- N/A -   "
1.84, 81.61965, 0.00319326, NaN, NaN, NaN, 0.0335714, "- N/A -   "
1.88, 82.91707, 0.003254353, NaN, NaN, NaN, 0.03601294, "- N/A -   "
1.92, 84.21449, 0.00331544, NaN, NaN, NaN, 0.0384545, "- N/A -   "
1.96, 85.74781, 0.00338486, NaN, NaN, NaN, 0.0372337, "- N/A -   "
2, 87.51702, 0.00346261, NaN, NaN, NaN, 0.0323506, "- N/A -   "
2.04, 88.9324, 0.00352925, NaN, NaN, NaN, 0.0323506, "- N/A -   "
2.08, 90.34776, 0.00359312, NaN, NaN, NaN, 0.0347922, "- N/A -   "
2.12, 91.76313, 0.00365143, NaN, NaN, NaN, 0.0372337, "- N/A -   "
2.16, 93.1785, 0.003715294, NaN, NaN, NaN, 0.0384545, "- N/A -   "
2.2, 94.47592, 0.00377638, NaN, NaN, NaN, 0.04211683, "- N/A -   "
2.24, 96.24514, 0.0038458, NaN, NaN, NaN, 0.0396753, "- N/A -   "
2.28, 97.54256, 0.00390967, NaN, NaN, NaN, 0.04089605, "- N/A -   "
2.32, 99.0759, 0.00397909, NaN, NaN, NaN, 0.0396753, "- N/A -   "
2.36, 100.6092, 0.004051281, NaN, NaN, NaN, 0.0372337, "- N/A -   "
2.4, 102.26, 0.004123477, NaN, NaN, NaN, 0.03601294, "- N/A -   "
2.44, 103.794, 0.004187342, NaN, NaN, NaN, 0.03601294, "- N/A -   "
2.48, 105.327, 0.004253984, NaN, NaN, NaN, 0.03601294, "- N/A -   "
2.52, 106.86, 0.00432063, NaN, NaN, NaN, 0.03601294, "- N/A -   "
2.56, 108.512, 0.004395598, NaN, NaN, NaN, 0.0323506, "- N/A -   "
2.6, 110.163, 0.00446779, NaN, NaN, NaN, 0.03112983, "- N/A -   "
2.64, 111.696, 0.004534436, NaN, NaN, NaN, 0.03112983, "- N/A -   "
2.68, 113.23, 0.004598301, NaN, NaN, NaN, 0.03112983, "- N/A -   "
2.72, 114.645, 0.00466217, NaN, NaN, NaN, 0.0323506, "- N/A -   "
2.76, 116.178, 0.00472881, NaN, NaN, NaN, 0.0335714, "- N/A -   "
2.8, 117.594, 0.00479267, NaN, NaN, NaN, 0.0347922, "- N/A -   "
2.84, 118.891, 0.004853762, NaN, NaN, NaN, 0.03601294, "- N/A -   "
2.88, 120.542, 0.004917627, NaN, NaN, NaN, 0.0384545, "- N/A -   "
2.92, 121.84, 0.004978716, NaN, NaN, NaN, 0.0396753, "- N/A -   "
2.96, 123.373, 0.00504258, NaN, NaN, NaN, 0.04089605, "- N/A -   "
3, 124.67, 0.00510367, NaN, NaN, NaN, 0.0433376, "- N/A -   "
3.04, 126.204, 0.00516476, NaN, NaN, NaN, 0.04577916, "- N/A -   "
[...]
34.3, 1471.88, 0.05727051, NaN, NaN, NaN, 0.0433376, "- N/A -   "
34.49, 1481.064, 0.0575982, NaN, NaN, NaN, 0.0384545, "- N/A -   "
34.68, 1490.48, 0.05793138, NaN, NaN, NaN, 0.03112983, "- N/A -   "
34.87, 1498.71, 0.058234, NaN, NaN, NaN, 0.0372337, "- N/A -   "
35.06, 1507.06, 0.0585395, NaN, NaN, NaN, 0.0433376, "- N/A -   "
35.25, 1517.2, 0.05889491, NaN, NaN, NaN, 0.0250259, "- N/A -   "
35.44, 1525.31, 0.05919202, NaN, NaN, NaN, 0.03601294, "- N/A -   "
35.63, 1533.53, 0.05949191, NaN, NaN, NaN, 0.04211683, "- N/A -   "
35.82, 1542.84, 0.0598223, NaN, NaN, NaN, 0.03601294, "- N/A -   "
36.01, 1551.54, 0.0601389, NaN, NaN, NaN, 0.03601294, "- N/A -   "
36.2, 1560.25, 0.0604527, NaN, NaN, NaN, 0.0372337, "- N/A -   "
36.39, 1568.83, 0.06076366, NaN, NaN, NaN, 0.0396753, "- N/A -   "
36.58, 1578.02, 0.0610941, NaN, NaN, NaN, 0.0335714, "- N/A -   "
36.77, 1586.96, 0.0614162, NaN, NaN, NaN, 0.03112983, "- N/A -   "
36.96, 1595.19, 0.0617189, NaN, NaN, NaN, 0.0384545, "- N/A -   "
37.15, 1603.42, 0.062016, NaN, NaN, NaN, 0.04699994, "- N/A -   "
37.34, 1613.08, 0.0623603, NaN, NaN, NaN, 0.0347922, "- N/A -   "
37.53, 1622.139, 0.06268795, NaN, NaN, NaN, 0.0299091, "- N/A -   "
37.72, 1629.77, 0.0629684, NaN, NaN, NaN, 0.0445584, "- N/A -   "
37.91, 1639.07, 0.0633072, NaN, NaN, NaN, 0.03601294, "- N/A -   "
38.1, 1648.49, 0.06364315, NaN, NaN, NaN, 0.0262467, "- N/A -   "
38.29, 1656.13, 0.0639264, NaN, NaN, NaN, 0.04211683, "- N/A -   "
38.48, 1664.59, 0.0642346, NaN, NaN, NaN, 0.0445584, "- N/A -   "
38.67, 1674.61, 0.06458725, NaN, NaN, NaN, 0.0286883, "- N/A -   "
38.86, 1682.96, 0.0648899, NaN, NaN, NaN, 0.0347922, "- N/A -   "
39.05, 1691.07, 0.0651898, NaN, NaN, NaN, 0.0433376, "- N/A -   "
39.24, 1700.37, 0.06552579, NaN, NaN, NaN, 0.0335714, "- N/A -   "
39.43, 1709.19, 0.0658423, NaN, NaN, NaN, 0.0335714, "- N/A -   "
39.62, 1717.78, 0.06615611, NaN, NaN, NaN, 0.0347922, "- N/A -   "
39.81, 1726.37, 0.0664671, NaN, NaN, NaN, 0.0384545, "- N/A -   "
40, 1735.07, 0.06678366, NaN, NaN, NaN, 0.0384545, "- N/A -   "
40.19, 1744.253, 0.06711409, NaN, NaN, NaN, 0.0323506, "- N/A -   "
40.38, 1752.48, 0.06741676, NaN, NaN, NaN, 0.0384545, "- N/A -   "
40.57, 1760.95, 0.06772498, NaN, NaN, NaN, 0.0433376, "- N/A -   "
40.76, 1770.37, 0.06806374, NaN, NaN, NaN, 0.0323506, "- N/A -   "
40.95, 1778.96, 0.06838585, NaN, NaN, NaN, 0.0299091, "- N/A -   "
41.14, 1786.47, 0.0686663, NaN, NaN, NaN, 0.04577916, "- N/A -   "
41.33, 1795.89, 0.0690051, NaN, NaN, NaN, 0.0372337, "- N/A -   "
41.52, 1804.71, 0.06933272, NaN, NaN, NaN, 0.03112983, "- N/A -   "
41.71, 1812.94, 0.0696354, NaN, NaN, NaN, 0.0372337, "- N/A -   "
41.9, 1821.17, 0.06994361, NaN, NaN, NaN, 0.04211683, "- N/A -   "
42.09, 1830.59, 0.07028792, NaN, NaN, NaN, 0.0286883, "- N/A -   "
42.28, 1838.82, 0.07059059, NaN, NaN, NaN, 0.03601294, "- N/A -   "
42.47, 1846.81, 0.0708877, NaN, NaN, NaN, 0.0445584, "- N/A -   "
42.66, 1855.99, 0.07122369, NaN, NaN, NaN, 0.03601294, "- N/A -   "
42.85, 1864.34, 0.07153191, NaN, NaN, NaN, 0.0384545, "- N/A -   "
43.04, 1873.28, 0.07186234, NaN, NaN, NaN, 0.0335714, "- N/A -   "
43.23, 1881.39, 0.0721622, NaN, NaN, NaN, 0.04089605, "- N/A -   "
43.42, 1890.34, 0.07249267, NaN, NaN, NaN, 0.0335714, "- N/A -   "
43.61, 1899.04, 0.07280921, NaN, NaN, NaN, 0.0335714, "- N/A -   "
43.8, 1907.032, 0.0731147, NaN, NaN, NaN, 0.0396753, "- N/A -   "
43.99, 1915.38, 0.07342287, NaN, NaN, NaN, 0.0433376, "- N/A -   "
44.18, 1924.562, 0.07375886, NaN, NaN, NaN, 0.0335714, "- N/A -   "
44.363, 1933.03, 0.07407541, NaN, NaN, NaN, 0.0299091, "- N/A -   "

File: Hamel_ForceTest_Bolt8_Test11.csv
Time, Load (lb), Position (in), AxialStrain (in), TransverseStrain (in), Auxiliary (), Control Out (V), Stress (psi)
0.0, 14.3896, 0.0, NaN, NaN, NaN, -0.007935055, "- N/A -   "
0.01, 14.5075, 0.0, NaN, NaN, NaN, -6.103888E-4, "- N/A -   "
0.02, 14.3896, 0.0, NaN, NaN, NaN, 0.01037661, "- N/A -   "
0.03, 14.5075, 2.776752E-6, NaN, NaN, NaN, 0.0286883, "- N/A -   "
0.04, 14.6255, 8.330256E-6, NaN, NaN, NaN, 0.04577916, "- N/A -   "
0.05, 14.7434, 1.94373e-05, NaN, NaN, NaN, 0.0604285, "- N/A -   "
0.06, 15.0973, 3.60978e-05, NaN, NaN, NaN, 0.07385705, "- N/A -   "
0.07, 15.4511, 5.5535e-05, NaN, NaN, NaN, 0.08362327, "- N/A -   "
0.08, 16.0409, 8.05258E-5, NaN, NaN, NaN, 0.09216871, "- N/A -   "
0.09, 16.5126, 0.00011107, NaN, NaN, NaN, 0.0982726, "- N/A -   "
0.1, 17.1024, 0.000141614, NaN, NaN, NaN, 0.101935, "- N/A -   "
0.11, 17.6921, 0.000174935, NaN, NaN, NaN, 0.095831, "- N/A -   "
0.12, 18.3998, 0.000202703, NaN, NaN, NaN, 0.0897272, "- N/A -   "
0.13, 18.8716, 0.000233247, NaN, NaN, NaN, 0.084844, "- N/A -   "
0.14, 19.3434, 2.582379E-4, NaN, NaN, NaN, 0.08118171, "- N/A -   "
0.15, 19.8152, 0.000286005, NaN, NaN, NaN, 0.0762986, "- N/A -   "
0.16, 20.169, 0.000308219, NaN, NaN, NaN, 0.07263627, "- N/A -   "
0.17, 20.6408, 0.000330433, NaN, NaN, NaN, 0.07141549, "- N/A -   "
0.18, 20.99465, 0.000349871, NaN, NaN, NaN, 0.0701947, "- N/A -   "
0.19, 21.46644, 3.69308E-4, NaN, NaN, NaN, 0.06775316, "- N/A -   "
0.2, 21.7023, 0.000391522, NaN, NaN, NaN, 0.06653238, "- N/A -   "
0.21, 22.1741, 0.000410959, NaN, NaN, NaN, 0.0653116, "- N/A -   "
0.22, 22.528, 0.000430397, NaN, NaN, NaN, 0.06287005, "- N/A -   "
0.23, 22.88181, 0.000449834, NaN, NaN, NaN, 0.06164927, "- N/A -   "
0.24, 23.2357, 0.000469271, NaN, NaN, NaN, 0.0604285, "- N/A -   "
0.25, 23.5895, 4.887083E-4, NaN, NaN, NaN, 0.0604285, "- N/A -   "
0.26, 23.9433, 5.053688E-4, NaN, NaN, NaN, 0.0592077, "- N/A -   "
0.27, 24.4151, 5.248061E-4, NaN, NaN, NaN, 0.0579869, "- N/A -   "
0.28, 24.65102, 5.414666E-4, NaN, NaN, NaN, 0.0579869, "- N/A -   "
0.29, 25.0049, 5.636806E-4, NaN, NaN, NaN, 0.0555454, "- N/A -   "
0.3, 25.3587, 5.831179E-4, NaN, NaN, NaN, 0.0555454, "- N/A -   "
0.31, 25.7125, 0.000602555, NaN, NaN, NaN, 0.0543246, "- N/A -   "
0.32, 26.0664, 6.219924E-4, NaN, NaN, NaN, 0.0531038, "- N/A -   "
0.33, 26.5382, 6.414297E-4, NaN, NaN, NaN, 0.05066227, "- N/A -   "
0.34, 27.01, 6.608669E-4, NaN, NaN, NaN, 0.0494415, "- N/A -   "
0.35, 27.3638, 6.803042E-4, NaN, NaN, NaN, 0.0482207, "- N/A -   "
0.36, 27.5997, 6.969647E-4, NaN, NaN, NaN, 0.0482207, "- N/A -   "
0.37, 28.0715, 7.136252E-4, NaN, NaN, NaN, 0.0482207, "- N/A -   "
0.38, 28.1894, 7.302857E-4, NaN, NaN, NaN, 0.0482207, "- N/A -   "
0.39, 28.54329, 7.49723E-4, NaN, NaN, NaN, 0.04699994, "- N/A -   "
0.4, 29.0151, 7.691603E-4, NaN, NaN, NaN, 0.04577916, "- N/A -   "
0.41, 29.251, 7.885975E-4, NaN, NaN, NaN, 0.0445584, "- N/A -   "
0.42, 29.7228, 8.080348E-4, NaN, NaN, NaN, 0.0445584, "- N/A -   "
0.49, 32.08171, 9.385421E-4, NaN, NaN, NaN, 0.0384545, "- N/A -   "
0.56, 34.6766, 0.00106905, NaN, NaN, NaN, 0.03112983, "- N/A -   "
0.63, 36.79961, 0.00118845, NaN, NaN, NaN, 0.03112983, "- N/A -   "
0.7, 38.8047, 0.001296743, NaN, NaN, NaN, 0.0335714, "- N/A -   "
0.77, 40.69188, 0.00140226, NaN, NaN, NaN, 0.0384545, "- N/A -   "
0.84, 42.697, 0.001510553, NaN, NaN, NaN, 0.0433376, "- N/A -   "
0.91, 44.93799, 0.0016244, NaN, NaN, NaN, 0.0445584, "- N/A -   "
0.98, 47.179, 0.00174102, NaN, NaN, NaN, 0.0433376, "- N/A -   "
1.05, 49.6559, 0.00187153, NaN, NaN, NaN, 0.0372337, "- N/A -   "
1.12, 52.36868, 0.00201037, NaN, NaN, NaN, 0.0274675, "- N/A -   "
1.19, 54.8456, 0.00212977, NaN, NaN, NaN, 0.0262467, "- N/A -   "
1.26, 56.85068, 0.00223529, NaN, NaN, NaN, 0.03112983, "- N/A -   "
1.33, 58.9737, 0.00234358, NaN, NaN, NaN, 0.03601294, "- N/A -   "
1.4, 60.97884, 0.00245187, NaN, NaN, NaN, 0.0384545, "- N/A -   "
1.47, 63.33779, 0.0025685, NaN, NaN, NaN, 0.0396753, "- N/A -   "
1.54, 65.4608, 0.00267401, NaN, NaN, NaN, 0.0433376, "- N/A -   "
1.61, 67.70185, 0.00278786, NaN, NaN, NaN, 0.0445584, "- N/A -   "
1.68, 70.29669, 0.002918366, NaN, NaN, NaN, 0.0384545, "- N/A -   "
1.75, 72.77359, 0.00304332, NaN, NaN, NaN, 0.03601294, "- N/A -   "
1.82, 75.13254, 0.003165497, NaN, NaN, NaN, 0.0323506, "- N/A -   "
1.89, 77.37354, 0.00327657, NaN, NaN, NaN, 0.0347922, "- N/A -   "
1.96, 79.61454, 0.00338764, NaN, NaN, NaN, 0.0372337, "- N/A -   "
2.03, 82.20939, 0.00351259, NaN, NaN, NaN, 0.0335714, "- N/A -   "
2.1, 84.56834, 0.00362921, NaN, NaN, NaN, 0.0335714, "- N/A -   "
2.17, 86.57345, 0.00373473, NaN, NaN, NaN, 0.0384545, "- N/A -   "
2.24, 89.05035, 0.00384858, NaN, NaN, NaN, 0.0396753, "- N/A -   "
2.31, 91.40929, 0.003965202, NaN, NaN, NaN, 0.0396753, "- N/A -   "
2.38, 94.0041, 0.00409016, NaN, NaN, NaN, 0.03601294, "- N/A -   "
2.45, 96.481, 0.00420956, NaN, NaN, NaN, 0.0347922, "- N/A -   "
2.52, 98.83998, 0.004328956, NaN, NaN, NaN, 0.0347922, "- N/A -   "
2.59, 101.435, 0.004451133, NaN, NaN, NaN, 0.03112983, "- N/A -   "
2.66, 103.794, 0.0045622, NaN, NaN, NaN, 0.0335714, "- N/A -   "
2.73, 106.035, 0.00467605, NaN, NaN, NaN, 0.03601294, "- N/A -   "
2.8, 108.512, 0.004792674, NaN, NaN, NaN, 0.0347922, "- N/A -   "
2.87, 110.871, 0.00490097, NaN, NaN, NaN, 0.0384545, "- N/A -   "
2.94, 113.23, 0.005017591, NaN, NaN, NaN, 0.0396753, "- N/A -   "
3.01, 115.471, 0.005123107, NaN, NaN, NaN, 0.0433376, "- N/A -   "
3.08, 118.065, 0.00524806, NaN, NaN, NaN, 0.0396753, "- N/A -   "
3.15, 120.66, 0.005373015, NaN, NaN, NaN, 0.0372337, "- N/A -   "
3.22, 123.373, 0.00549519, NaN, NaN, NaN, 0.0335714, "- N/A -   "
3.29, 125.614, 0.00561182, NaN, NaN, NaN, 0.0347922, "- N/A -   "
3.36, 128.091, 0.00573122, NaN, NaN, NaN, 0.0323506, "- N/A -   "
3.43, 130.568, 0.00585062, NaN, NaN, NaN, 0.03112983, "- N/A -   "
3.5, 132.809, 0.00596169, NaN, NaN, NaN, 0.0335714, "- N/A -   "
3.57, 134.696, 0.00605887, NaN, NaN, NaN, 0.04211683, "- N/A -   "
3.64, 136.937, 0.006167166, NaN, NaN, NaN, 0.04699994, "- N/A -   "
3.71, 139.414, 0.006294897, NaN, NaN, NaN, 0.0433376, "- N/A -   "
3.78, 142.3626, 0.006425404, NaN, NaN, NaN, 0.03601294, "- N/A -   "
3.85, 144.8395, 0.006547581, NaN, NaN, NaN, 0.0335714, "- N/A -   "
3.92, 147.434, 0.006672535, NaN, NaN, NaN, 0.0299091, "- N/A -   "
3.99, 149.911, 0.006794712, NaN, NaN, NaN, 0.0274675, "- N/A -   "
4.06, 152.152, 0.006905782, NaN, NaN, NaN, 0.0299091, "- N/A -   "
4.13, 154.2753, 0.0070113, NaN, NaN, NaN, 0.0347922, "- N/A -   "
4.2, 156.2804, 0.00711126, NaN, NaN, NaN, 0.04211683, "- N/A -   "
4.27, 158.639, 0.00722233, NaN, NaN, NaN, 0.0445584, "- N/A -   "
4.34, 160.998, 0.00733896, NaN, NaN, NaN, 0.0445584, "- N/A -   "
4.41, 163.593, 0.00746113, NaN, NaN, NaN, 0.0433376, "- N/A -   "
4.48, 166.306, 0.007588863, NaN, NaN, NaN, 0.0372337, "- N/A -   "
4.55, 169.019, 0.00771937, NaN, NaN, NaN, 0.0323506, "- N/A -   "
4.62, 171.614, 0.007841548, NaN, NaN, NaN, 0.0286883, "- N/A -   "
4.69, 173.737, 0.007947064, NaN, NaN, NaN, 0.0335714, "- N/A -   "
4.76, 175.978, 0.008055357, NaN, NaN, NaN, 0.0372337, "- N/A -   "
4.83, 178.455, 0.00817476, NaN, NaN, NaN, 0.03601294, "- N/A -   "
4.9, 180.696, 0.008283051, NaN, NaN, NaN, 0.0396753, "- N/A -   "
4.97, 182.937, 0.008391344, NaN, NaN, NaN, 0.0433376, "- N/A -   "
[...]
41.94, 1764.88, 0.0700158, NaN, NaN, NaN, 0.0396753, "- N/A -   "
42.09, 1772.635, 0.07029902, NaN, NaN, NaN, 0.0250259, "- N/A -   "
42.24, 1778.96, 0.0705295, NaN, NaN, NaN, 0.0335714, "- N/A -   "
42.39, 1785.395, 0.07076552, NaN, NaN, NaN, 0.0396753, "- N/A -   "
42.54, 1791.83, 0.0710043, NaN, NaN, NaN, 0.0445584, "- N/A -   "
42.69, 1799.47, 0.07127922, NaN, NaN, NaN, 0.0335714, "- N/A -   "
42.84, 1805.91, 0.0715208, NaN, NaN, NaN, 0.0372337, "- N/A -   "
42.99, 1813.06, 0.071779, NaN, NaN, NaN, 0.0335714, "- N/A -   "
43.14, 1819.38, 0.07201228, NaN, NaN, NaN, 0.04089605, "- N/A -   "
43.29, 1826.66, 0.07227052, NaN, NaN, NaN, 0.0372337, "- N/A -   "
43.44, 1833.69, 0.07253153, NaN, NaN, NaN, 0.0323506, "- N/A -   "
43.59, 1840.37, 0.0727759, NaN, NaN, NaN, 0.0347922, "- N/A -   "
43.74, 1847.29, 0.07303134, NaN, NaN, NaN, 0.0335714, "- N/A -   "
43.89, 1853.49, 0.07325905, NaN, NaN, NaN, 0.04211683, "- N/A -   "
44.04, 1860.29, 0.07350618, NaN, NaN, NaN, 0.0433376, "- N/A -   "
44.19, 1867.68, 0.0737783, NaN, NaN, NaN, 0.0347922, "- N/A -   "
44.34, 1874.83, 0.07403931, NaN, NaN, NaN, 0.0286883, "- N/A -   "
44.49, 1880.92, 0.07426423, NaN, NaN, NaN, 0.04211683, "- N/A -   "
44.64, 1887.24, 0.0745003, NaN, NaN, NaN, 0.04699994, "- N/A -   "
44.79, 1895.35, 0.07478626, NaN, NaN, NaN, 0.03112983, "- N/A -   "
44.94, 1902.02, 0.07503894, NaN, NaN, NaN, 0.0299091, "- N/A -   "
45.09, 1908.22, 0.07526941, NaN, NaN, NaN, 0.0384545, "- N/A -   "
45.24, 1914.43, 0.07550266, NaN, NaN, NaN, 0.04577916, "- N/A -   "
45.39, 1921.7, 0.07576367, NaN, NaN, NaN, 0.04089605, "- N/A -   "
45.54, 1928.97, 0.07603579, NaN, NaN, NaN, 0.03112983, "- N/A -   "
45.69, 1935.414, 0.07627182, NaN, NaN, NaN, 0.0372337, "- N/A -   "
45.84, 1942.09, 0.0765134, NaN, NaN, NaN, 0.04089605, "- N/A -   "
45.99, 1948.53, 0.07675219, NaN, NaN, NaN, 0.04577916, "- N/A -   "
46.14, 1956.52, 0.077041, NaN, NaN, NaN, 0.0286883, "- N/A -   "
46.29, 1962.72, 0.0772742, NaN, NaN, NaN, 0.03601294, "- N/A -   "
46.44, 1969.88, 0.07753247, NaN, NaN, NaN, 0.0323506, "- N/A -   "
46.59, 1975.72, 0.07775461, NaN, NaN, NaN, 0.0445584, "- N/A -   "
46.74, 1982.757, 0.0780184, NaN, NaN, NaN, 0.0384545, "- N/A -   "
46.89, 1989.67, 0.0782766, NaN, NaN, NaN, 0.03601294, "- N/A -   "
47.04, 1996.83, 0.07853766, NaN, NaN, NaN, 0.0299091, "- N/A -   "
47.19, 2003.03, 0.07877368, NaN, NaN, NaN, 0.0372337, "- N/A -   "
47.34, 2008.87, 0.0790014, NaN, NaN, NaN, 0.04577916, "- N/A -   "
47.49, 2016.51, 0.07927627, NaN, NaN, NaN, 0.0347922, "- N/A -   "
47.64, 2023.54, 0.07953729, NaN, NaN, NaN, 0.03112983, "- N/A -   "
47.79, 2030.1, 0.0797872, NaN, NaN, NaN, 0.0299091, "- N/A -   "
47.94, 2035.347, 0.0799982, NaN, NaN, NaN, 0.04699994, "- N/A -   "
48.09, 2042.62, 0.08026757, NaN, NaN, NaN, 0.0384545, "- N/A -   "
48.24, 2049.538, 0.0805314, NaN, NaN, NaN, 0.0335714, "- N/A -   "
48.39, 2056.34, 0.08078682, NaN, NaN, NaN, 0.0299091, "- N/A -   "
48.54, 2061.94, 0.081009, NaN, NaN, NaN, 0.04211683, "- N/A -   "
48.69, 2068.38, 0.08125887, NaN, NaN, NaN, 0.04211683, "- N/A -   "
48.84, 2075.3, 0.08152544, NaN, NaN, NaN, 0.0347922, "- N/A -   "
48.99, 2082.21, 0.081792, NaN, NaN, NaN, 0.0286883, "- N/A -   "
49.14, 2088.18, 0.08202525, NaN, NaN, NaN, 0.0372337, "- N/A -   "
49.29, 2093.9, 0.0822585, NaN, NaN, NaN, 0.0433376, "- N/A -   "
49.44, 2100.578, 0.08251952, NaN, NaN, NaN, 0.0384545, "- N/A -   "
49.59, 2107.02, 0.0827777, NaN, NaN, NaN, 0.0347922, "- N/A -   "
49.74, 2113.22, 0.08302765, NaN, NaN, NaN, 0.0347922, "- N/A -   "
49.769, 2114.53, 0.08308042, NaN, NaN, NaN, 0.0323506, "- N/A -   "