Folder: DigitalTwins-Machine-Learning/2_Tensile_Data (part 14)

File: Hamel_ForceTest_Bolt5_Test4.csv
Time, Load (lb), Position (in), AxialStrain (in), TransverseStrain (in), Auxiliary (), Control Out (V), Stress (psi)
0.0, 1.17947, 0.0, NaN, NaN, NaN, 0.095831, "- N/A -   "
0.01, 1.65126, 3.054427E-5, NaN, NaN, NaN, 0.09949338, "- N/A -   "
0.02, 2.241, 6.386529E-5, NaN, NaN, NaN, 0.09338949, "- N/A -   "
0.03, 2.712792, 9.16328e-05, NaN, NaN, NaN, 0.0872856, "- N/A -   "
0.04, 3.30253, 0.000122177, NaN, NaN, NaN, 0.08118171, "- N/A -   "
0.05, 3.774319, 0.000147168, NaN, NaN, NaN, 0.07751938, "- N/A -   "
0.06, 4.36406, 0.000172159, NaN, NaN, NaN, 0.0750778, "- N/A -   "
0.07, 4.59995, 0.000191596, NaN, NaN, NaN, 0.07263627, "- N/A -   "
0.08, 5.071741, 2.138099E-4, NaN, NaN, NaN, 0.0701947, "- N/A -   "
0.09, 5.425584, 0.000233247, NaN, NaN, NaN, 0.0689739, "- N/A -   "
0.1, 5.779426, 2.526844E-4, NaN, NaN, NaN, 0.06775316, "- N/A -   "
0.11, 6.13327, 2.721217E-4, NaN, NaN, NaN, 0.06775316, "- N/A -   "
0.12, 6.487111, 0.000288782, NaN, NaN, NaN, 0.06653238, "- N/A -   "
0.13, 6.84095, 3.109962E-4, NaN, NaN, NaN, 0.0640908, "- N/A -   "
0.14, 7.1948, 0.000327657, NaN, NaN, NaN, 0.0640908, "- N/A -   "
0.15, 7.666586, 0.000347094, NaN, NaN, NaN, 0.06287005, "- N/A -   "
0.16, 7.90248, 0.000366531, NaN, NaN, NaN, 0.06164927, "- N/A -   "
0.17, 8.37427, 3.859685E-4, NaN, NaN, NaN, 0.0604285, "- N/A -   "
0.18, 8.728113, 0.000405406, NaN, NaN, NaN, 0.0592077, "- N/A -   "
0.19, 9.199903, 4.276198E-4, NaN, NaN, NaN, 0.0579869, "- N/A -   "
0.2, 9.435798, 0.000447057, NaN, NaN, NaN, 0.0555454, "- N/A -   "
0.21, 9.907588, 0.000469271, NaN, NaN, NaN, 0.0531038, "- N/A -   "
0.22, 10.26143, 4.887083E-4, NaN, NaN, NaN, 0.05188305, "- N/A -   "
0.23, 10.73322, 0.000510922, NaN, NaN, NaN, 0.0494415, "- N/A -   "
0.24, 11.0871, 0.000533136, NaN, NaN, NaN, 0.0482207, "- N/A -   "
0.25, 11.4409, 5.525736E-4, NaN, NaN, NaN, 0.04699994, "- N/A -   "
0.26, 11.7947, 5.720109E-4, NaN, NaN, NaN, 0.04577916, "- N/A -   "
0.27, 12.14859, 0.000591448, NaN, NaN, NaN, 0.0445584, "- N/A -   "
0.28, 12.3845, 6.108854E-4, NaN, NaN, NaN, 0.0433376, "- N/A -   "
0.29, 12.8563, 0.000627546, NaN, NaN, NaN, 0.04211683, "- N/A -   "
0.3, 13.2101, 6.497599E-4, NaN, NaN, NaN, 0.04089605, "- N/A -   "
0.31, 13.564, 0.00066642, NaN, NaN, NaN, 0.0396753, "- N/A -   "
0.32, 13.9178, 6.858577E-4, NaN, NaN, NaN, 0.0384545, "- N/A -   "
0.33, 14.2716, 0.000705295, NaN, NaN, NaN, 0.0372337, "- N/A -   "
0.34, 14.6255, 7.219555E-4, NaN, NaN, NaN, 0.0372337, "- N/A -   "
0.35, 14.8614, 7.38616E-4, NaN, NaN, NaN, 0.0372337, "- N/A -   "
0.36, 15.0973, 7.552765E-4, NaN, NaN, NaN, 0.0372337, "- N/A -   "
0.37, 15.4511, 7.71937E-4, NaN, NaN, NaN, 0.0372337, "- N/A -   "
0.38, 15.805, 7.885975E-4, NaN, NaN, NaN, 0.0372337, "- N/A -   "
0.39, 16.1588, 8.080348E-4, NaN, NaN, NaN, 0.03601294, "- N/A -   "
0.4, 16.3947, 8.27472E-4, NaN, NaN, NaN, 0.03601294, "- N/A -   "
0.41, 16.74854, 0.000844133, NaN, NaN, NaN, 0.0347922, "- N/A -   "
0.47, 18.7536, 9.552026E-4, NaN, NaN, NaN, 0.03112983, "- N/A -   "
0.53, 20.6408, 0.00105517, NaN, NaN, NaN, 0.0299091, "- N/A -   "
0.59, 22.1741, 0.0011468, NaN, NaN, NaN, 0.0335714, "- N/A -   "
0.65, 23.7074, 0.00123565, NaN, NaN, NaN, 0.0384545, "- N/A -   "
0.71, 25.2408, 0.00132451, NaN, NaN, NaN, 0.0433376, "- N/A -   "
0.77, 27.1279, 0.00142447, NaN, NaN, NaN, 0.0433376, "- N/A -   "
0.83, 28.7792, 0.00152166, NaN, NaN, NaN, 0.0445584, "- N/A -   "
0.89, 30.78429, 0.001621623, NaN, NaN, NaN, 0.0445584, "- N/A -   "
0.95, 32.7894, 0.00173269, NaN, NaN, NaN, 0.0396753, "- N/A -   "
1.01, 35.0304, 0.00185487, NaN, NaN, NaN, 0.0299091, "- N/A -   "
1.07, 37.0355, 0.00195761, NaN, NaN, NaN, 0.0286883, "- N/A -   "
1.13, 38.8047, 0.0020548, NaN, NaN, NaN, 0.0299091, "- N/A -   "
1.19, 40.456, 0.00214365, NaN, NaN, NaN, 0.0347922, "- N/A -   "
1.25, 42.3431, 0.002238062, NaN, NaN, NaN, 0.0372337, "- N/A -   "
1.31, 44.2303, 0.002338025, NaN, NaN, NaN, 0.0372337, "- N/A -   "
1.37, 46.23541, 0.00243799, NaN, NaN, NaN, 0.0372337, "- N/A -   "
1.43, 47.8867, 0.00252684, NaN, NaN, NaN, 0.04211683, "- N/A -   "
1.49, 49.7738, 0.00262125, NaN, NaN, NaN, 0.0445584, "- N/A -   "
1.55, 51.7789, 0.00272399, NaN, NaN, NaN, 0.0433376, "- N/A -   "
1.61, 54.0199, 0.002840617, NaN, NaN, NaN, 0.03601294, "- N/A -   "
1.67, 56.143, 0.002951687, NaN, NaN, NaN, 0.03112983, "- N/A -   "
1.73, 58.1481, 0.003057204, NaN, NaN, NaN, 0.0299091, "- N/A -   "
1.79, 59.79937, 0.00314606, NaN, NaN, NaN, 0.0335714, "- N/A -   "
1.85, 61.56858, 0.00323769, NaN, NaN, NaN, 0.0372337, "- N/A -   "
1.91, 63.6916, 0.00334599, NaN, NaN, NaN, 0.0335714, "- N/A -   "
1.97, 65.5788, 0.00344317, NaN, NaN, NaN, 0.0347922, "- N/A -   "
2.03, 67.23006, 0.00353203, NaN, NaN, NaN, 0.0396753, "- N/A -   "
2.09, 68.8813, 0.003626438, NaN, NaN, NaN, 0.04211683, "- N/A -   "
2.15, 71.00438, 0.00373473, NaN, NaN, NaN, 0.0396753, "- N/A -   "
2.21, 72.65564, 0.00382914, NaN, NaN, NaN, 0.04089605, "- N/A -   "
2.27, 74.8966, 0.00393743, NaN, NaN, NaN, 0.0372337, "- N/A -   "
2.33, 76.7838, 0.00404295, NaN, NaN, NaN, 0.03601294, "- N/A -   "
2.39, 78.67096, 0.00414569, NaN, NaN, NaN, 0.0335714, "- N/A -   "
2.45, 80.67606, 0.00424843, NaN, NaN, NaN, 0.0323506, "- N/A -   "
2.51, 82.44528, 0.00434839, NaN, NaN, NaN, 0.0323506, "- N/A -   "
2.57, 84.21449, 0.00444558, NaN, NaN, NaN, 0.0335714, "- N/A -   "
2.63, 86.1017, 0.004542766, NaN, NaN, NaN, 0.0347922, "- N/A -   "
2.69, 87.8709, 0.004645506, NaN, NaN, NaN, 0.0347922, "- N/A -   "
2.75, 89.52213, 0.004739915, NaN, NaN, NaN, 0.03601294, "- N/A -   "
2.81, 91.1734, 0.004837102, NaN, NaN, NaN, 0.0384545, "- N/A -   "
2.87, 92.82466, 0.004928735, NaN, NaN, NaN, 0.04211683, "- N/A -   "
2.93, 94.59387, 0.005023144, NaN, NaN, NaN, 0.0433376, "- N/A -   "
2.99, 96.599, 0.005134214, NaN, NaN, NaN, 0.0396753, "- N/A -   "
3.05, 98.60408, 0.005245284, NaN, NaN, NaN, 0.0347922, "- N/A -   "
3.11, 100.6092, 0.00534802, NaN, NaN, NaN, 0.0323506, "- N/A -   "
3.17, 102.143, 0.00544521, NaN, NaN, NaN, 0.0335714, "- N/A -   "
3.23, 104.03, 0.00555073, NaN, NaN, NaN, 0.0323506, "- N/A -   "
3.29, 105.917, 0.00565902, NaN, NaN, NaN, 0.0286883, "- N/A -   "
3.35, 107.686, 0.00575343, NaN, NaN, NaN, 0.03112983, "- N/A -   "
3.41, 109.219, 0.00583951, NaN, NaN, NaN, 0.03601294, "- N/A -   "
3.47, 110.753, 0.005925589, NaN, NaN, NaN, 0.04211683, "- N/A -   "
3.53, 112.286, 0.00601722, NaN, NaN, NaN, 0.0482207, "- N/A -   "
3.59, 114.055, 0.006119961, NaN, NaN, NaN, 0.04577916, "- N/A -   "
3.65, 116.178, 0.006231031, NaN, NaN, NaN, 0.04089605, "- N/A -   "
3.71, 118.065, 0.00633932, NaN, NaN, NaN, 0.0372337, "- N/A -   "
3.77, 119.953, 0.006447618, NaN, NaN, NaN, 0.0347922, "- N/A -   "
3.83, 121.958, 0.006550358, NaN, NaN, NaN, 0.0323506, "- N/A -   "
3.89, 123.609, 0.006658651, NaN, NaN, NaN, 0.0299091, "- N/A -   "
3.95, 125.614, 0.006758614, NaN, NaN, NaN, 0.0286883, "- N/A -   "
4.01, 127.147, 0.00685025, NaN, NaN, NaN, 0.0323506, "- N/A -   "
4.07, 128.563, 0.00693355, NaN, NaN, NaN, 0.0396753, "- N/A -   "
4.13, 130.214, 0.00702518, NaN, NaN, NaN, 0.0433376, "- N/A -   "
4.19, 131.983, 0.00712515, NaN, NaN, NaN, 0.0433376, "- N/A -   "
4.25, 133.752, 0.00722233, NaN, NaN, NaN, 0.0445584, "- N/A -   "
4.31, 135.522, 0.00732507, NaN, NaN, NaN, 0.0445584, "- N/A -   "
[...]
24.7, 916.7194, 0.0413125, NaN, NaN, NaN, 0.04089605, "- N/A -   "
24.83, 922.6334, 0.04154021, NaN, NaN, NaN, 0.03601294, "- N/A -   "
24.96, 928.5475, 0.0417707, NaN, NaN, NaN, 0.0299091, "- N/A -   "
25.09, 933.8701, 0.0419789, NaN, NaN, NaN, 0.0335714, "- N/A -   "
25.22, 939.311, 0.04219552, NaN, NaN, NaN, 0.0347922, "- N/A -   "
25.35, 944.2788, 0.0423899, NaN, NaN, NaN, 0.0433376, "- N/A -   "
25.48, 950.1929, 0.0426148, NaN, NaN, NaN, 0.0396753, "- N/A -   "
25.61, 956.3435, 0.0428536, NaN, NaN, NaN, 0.0299091, "- N/A -   "
25.74, 961.43, 0.0430563, NaN, NaN, NaN, 0.03601294, "- N/A -   "
25.87, 967.107, 0.0432785, NaN, NaN, NaN, 0.0335714, "- N/A -   "
26, 972.548, 0.0434895, NaN, NaN, NaN, 0.03601294, "- N/A -   "
26.13, 977.7523, 0.04369497, NaN, NaN, NaN, 0.04089605, "- N/A -   "
26.26, 983.43, 0.04391711, NaN, NaN, NaN, 0.0396753, "- N/A -   "
26.39, 989.462, 0.0441476, NaN, NaN, NaN, 0.0335714, "- N/A -   "
26.52, 995.1396, 0.04436972, NaN, NaN, NaN, 0.03112983, "- N/A -   "
26.65, 1000.23, 0.04457242, NaN, NaN, NaN, 0.0384545, "- N/A -   "
26.78, 1005.19, 0.04476957, NaN, NaN, NaN, 0.04699994, "- N/A -   "
26.91, 1011.46, 0.0450028, NaN, NaN, NaN, 0.0384545, "- N/A -   "
27.04, 1017.17, 0.04523051, NaN, NaN, NaN, 0.0347922, "- N/A -   "
27.17, 1023.14, 0.04545543, NaN, NaN, NaN, 0.0299091, "- N/A -   "
27.3, 1028.26, 0.04565813, NaN, NaN, NaN, 0.03601294, "- N/A -   "
27.43, 1033.15, 0.0458525, NaN, NaN, NaN, 0.04699994, "- N/A -   "
27.56, 1039.47, 0.0460885, NaN, NaN, NaN, 0.0372337, "- N/A -   "
27.69, 1045.32, 0.046319, NaN, NaN, NaN, 0.0323506, "- N/A -   "
27.82, 1051.16, 0.0465439, NaN, NaN, NaN, 0.0274675, "- N/A -   "
27.95, 1056.05, 0.04673829, NaN, NaN, NaN, 0.0372337, "- N/A -   "
28.08, 1061.18, 0.04694099, NaN, NaN, NaN, 0.0445584, "- N/A -   "
28.21, 1067.02, 0.0471631, NaN, NaN, NaN, 0.04211683, "- N/A -   "
28.34, 1073.46, 0.0474075, NaN, NaN, NaN, 0.0286883, "- N/A -   "
28.47, 1078.47, 0.0476074, NaN, NaN, NaN, 0.03601294, "- N/A -   "
28.6, 1084.19, 0.0478268, NaN, NaN, NaN, 0.0347922, "- N/A -   "
28.73, 1089.202, 0.0480267, NaN, NaN, NaN, 0.04211683, "- N/A -   "
28.86, 1095.05, 0.0482488, NaN, NaN, NaN, 0.0396753, "- N/A -   "
28.99, 1101.485, 0.0484932, NaN, NaN, NaN, 0.0286883, "- N/A -   "
29.12, 1106.37, 0.0486903, NaN, NaN, NaN, 0.03601294, "- N/A -   "
29.25, 1112.456, 0.0489153, NaN, NaN, NaN, 0.0323506, "- N/A -   "
29.38, 1117.23, 0.0491124, NaN, NaN, NaN, 0.04211683, "- N/A -   "
29.51, 1122.831, 0.049329, NaN, NaN, NaN, 0.04089605, "- N/A -   "
29.64, 1128.79, 0.0495539, NaN, NaN, NaN, 0.0372337, "- N/A -   "
29.77, 1134.637, 0.04978161, NaN, NaN, NaN, 0.0323506, "- N/A -   "
29.9, 1140, 0.0499899, NaN, NaN, NaN, 0.03601294, "- N/A -   "
30.03, 1145.73, 0.050212, NaN, NaN, NaN, 0.0335714, "- N/A -   "
30.16, 1150.74, 0.0504092, NaN, NaN, NaN, 0.04211683, "- N/A -   "
30.29, 1156.58, 0.0506368, NaN, NaN, NaN, 0.0384545, "- N/A -   "
30.42, 1162.66, 0.05086454, NaN, NaN, NaN, 0.0323506, "- N/A -   "
30.55, 1168.15, 0.0510867, NaN, NaN, NaN, 0.0299091, "- N/A -   "
30.68, 1173.63, 0.0512977, NaN, NaN, NaN, 0.0347922, "- N/A -   "
30.81, 1178.28, 0.0514838, NaN, NaN, NaN, 0.04699994, "- N/A -   "
30.94, 1184.13, 0.05171145, NaN, NaN, NaN, 0.0433376, "- N/A -   "
31.07, 1190.21, 0.0519447, NaN, NaN, NaN, 0.0347922, "- N/A -   "
31.2, 1196.05, 0.05217517, NaN, NaN, NaN, 0.0299091, "- N/A -   "
31.33, 1201.42, 0.0523806, NaN, NaN, NaN, 0.0335714, "- N/A -   "
31.46, 1205.95, 0.0525695, NaN, NaN, NaN, 0.04577916, "- N/A -   "
31.59, 1211.55, 0.0527916, NaN, NaN, NaN, 0.0433376, "- N/A -   "
31.688, 1216.21, 0.05296932, NaN, NaN, NaN, 0.0372337, "- N/A -   "

File: Hamel_ForceTest_Bolt5_Test5.csv
Time, Load (lb), Position (in), AxialStrain (in), TransverseStrain (in), Auxiliary (), Control Out (V), Stress (psi)
0.0, 1.41537, 0.0, NaN, NaN, NaN, 0.0982726, "- N/A -   "
0.01, 2.005107, 3.054427E-5, NaN, NaN, NaN, 0.104376, "- N/A -   "
0.02, 2.712792, 6.386529E-5, NaN, NaN, NaN, 0.100714, "- N/A -   "
0.03, 3.42048, 9.718631E-5, NaN, NaN, NaN, 0.09338949, "- N/A -   "
0.04, 4.010214, 0.000127731, NaN, NaN, NaN, 0.0872856, "- N/A -   "
0.05, 4.59995, 1.554981E-4, NaN, NaN, NaN, 0.08362327, "- N/A -   "
0.06, 5.071741, 0.000180489, NaN, NaN, NaN, 0.07874016, "- N/A -   "
0.07, 5.54353, 0.00020548, NaN, NaN, NaN, 0.0750778, "- N/A -   "
0.08, 5.897373, 0.000227694, NaN, NaN, NaN, 0.07263627, "- N/A -   "
0.09, 6.369163, 2.526844E-4, NaN, NaN, NaN, 0.0689739, "- N/A -   "
0.1, 6.84095, 2.776752E-4, NaN, NaN, NaN, 0.0653116, "- N/A -   "
0.11, 7.1948, 0.000302666, NaN, NaN, NaN, 0.06164927, "- N/A -   "
0.12, 7.784533, 0.00032488, NaN, NaN, NaN, 0.0592077, "- N/A -   "
0.13, 8.138375, 0.000349871, NaN, NaN, NaN, 0.05676616, "- N/A -   "
0.14, 8.492218, 3.748615E-4, NaN, NaN, NaN, 0.0531038, "- N/A -   "
0.15, 8.964007, 0.000397076, NaN, NaN, NaN, 0.05066227, "- N/A -   "
0.16, 9.31785, 4.192895E-4, NaN, NaN, NaN, 0.04699994, "- N/A -   "
0.17, 9.78964, 0.000441504, NaN, NaN, NaN, 0.0445584, "- N/A -   "
0.18, 10.1435, 0.000463718, NaN, NaN, NaN, 0.04211683, "- N/A -   "
0.19, 10.3794, 0.000485932, NaN, NaN, NaN, 0.0396753, "- N/A -   "
0.2, 10.8512, 0.000502592, NaN, NaN, NaN, 0.0396753, "- N/A -   "
0.21, 11.205, 5.192526E-4, NaN, NaN, NaN, 0.0396753, "- N/A -   "
0.22, 11.5589, 0.00053869, NaN, NaN, NaN, 0.0384545, "- N/A -   "
0.23, 11.7947, 5.553504E-4, NaN, NaN, NaN, 0.0384545, "- N/A -   "
0.24, 12.14859, 5.720109E-4, NaN, NaN, NaN, 0.0384545, "- N/A -   "
0.25, 12.5024, 0.000591448, NaN, NaN, NaN, 0.0372337, "- N/A -   "
0.26, 12.7383, 6.108854E-4, NaN, NaN, NaN, 0.03601294, "- N/A -   "
0.27, 13.09217, 0.000627546, NaN, NaN, NaN, 0.03601294, "- N/A -   "
0.28, 13.3281, 6.414297E-4, NaN, NaN, NaN, 0.0372337, "- N/A -   "
0.29, 13.6819, 0.00065809, NaN, NaN, NaN, 0.0372337, "- N/A -   "
0.3, 13.7999, 6.719739E-4, NaN, NaN, NaN, 0.0384545, "- N/A -   "
0.31, 14.1537, 0.000688634, NaN, NaN, NaN, 0.0396753, "- N/A -   "
0.32, 14.3896, 7.025182E-4, NaN, NaN, NaN, 0.0396753, "- N/A -   "
0.33, 14.5075, 7.191787E-4, NaN, NaN, NaN, 0.04089605, "- N/A -   "
0.34, 14.9793, 0.000733062, NaN, NaN, NaN, 0.04089605, "- N/A -   "
0.35, 15.2152, 7.49723E-4, NaN, NaN, NaN, 0.04089605, "- N/A -   "
0.36, 15.4511, 0.000763607, NaN, NaN, NaN, 0.04211683, "- N/A -   "
0.37, 15.805, 0.000780267, NaN, NaN, NaN, 0.04211683, "- N/A -   "
0.38, 16.0409, 0.000794151, NaN, NaN, NaN, 0.0433376, "- N/A -   "
0.39, 16.27675, 8.080348E-4, NaN, NaN, NaN, 0.0445584, "- N/A -   "
0.4, 16.5126, 8.246953E-4, NaN, NaN, NaN, 0.0445584, "- N/A -   "
0.409, 16.74854, 8.413558E-4, NaN, NaN, NaN, 0.04577916, "- N/A -   "
0.45, 17.928, 9.052211E-4, NaN, NaN, NaN, 0.04577916, "- N/A -   "
0.49, 19.1075, 9.746399E-4, NaN, NaN, NaN, 0.0445584, "- N/A -   "
0.53, 20.6408, 0.00105239, NaN, NaN, NaN, 0.0396753, "- N/A -   "
0.57, 21.93823, 0.00112181, NaN, NaN, NaN, 0.0384545, "- N/A -   "
0.61, 23.1177, 0.001194, NaN, NaN, NaN, 0.0372337, "- N/A -   "
0.65, 24.4151, 0.00126065, NaN, NaN, NaN, 0.03601294, "- N/A -   "
0.69, 25.5946, 0.00132729, NaN, NaN, NaN, 0.03601294, "- N/A -   "
0.73, 27.01, 0.00140781, NaN, NaN, NaN, 0.0299091, "- N/A -   "
0.77, 28.3074, 0.00148001, NaN, NaN, NaN, 0.0274675, "- N/A -   "
0.81, 29.3689, 0.001543874, NaN, NaN, NaN, 0.0286883, "- N/A -   "
0.85, 30.4304, 0.00160774, NaN, NaN, NaN, 0.0299091, "- N/A -   "
0.89, 31.8458, 0.0016716, NaN, NaN, NaN, 0.03112983, "- N/A -   "
0.929, 32.7894, 0.00172992, NaN, NaN, NaN, 0.0347922, "- N/A -   "
0.97, 33.61503, 0.00178267, NaN, NaN, NaN, 0.04089605, "- N/A -   "
1.01, 34.7945, 0.00184099, NaN, NaN, NaN, 0.0445584, "- N/A -   "
1.05, 35.85603, 0.00190485, NaN, NaN, NaN, 0.04577916, "- N/A -   "
1.09, 37.0355, 0.00197149, NaN, NaN, NaN, 0.04699994, "- N/A -   "
1.13, 38.3329, 0.002038136, NaN, NaN, NaN, 0.04577916, "- N/A -   "
1.17, 39.6304, 0.00210755, NaN, NaN, NaN, 0.0445584, "- N/A -   "
1.21, 40.9278, 0.00217975, NaN, NaN, NaN, 0.04211683, "- N/A -   "
1.25, 42.2252, 0.00225472, NaN, NaN, NaN, 0.0384545, "- N/A -   "
1.29, 43.75851, 0.00233803, NaN, NaN, NaN, 0.0323506, "- N/A -   "
1.33, 45.17388, 0.00240744, NaN, NaN, NaN, 0.0299091, "- N/A -   "
1.37, 46.3534, 0.00247131, NaN, NaN, NaN, 0.03112983, "- N/A -   "
1.41, 47.4149, 0.00253517, NaN, NaN, NaN, 0.0323506, "- N/A -   "
1.45, 48.59436, 0.00260182, NaN, NaN, NaN, 0.0323506, "- N/A -   "
1.49, 49.7738, 0.00266568, NaN, NaN, NaN, 0.0335714, "- N/A -   "
1.53, 50.9533, 0.00272677, NaN, NaN, NaN, 0.03601294, "- N/A -   "
1.57, 52.1328, 0.00279064, NaN, NaN, NaN, 0.0372337, "- N/A -   "
1.61, 53.3123, 0.002854501, NaN, NaN, NaN, 0.0384545, "- N/A -   "
1.65, 54.4917, 0.00292114, NaN, NaN, NaN, 0.0384545, "- N/A -   "
1.69, 55.55326, 0.00298223, NaN, NaN, NaN, 0.04089605, "- N/A -   "
1.73, 56.73273, 0.00304332, NaN, NaN, NaN, 0.0433376, "- N/A -   "
1.77, 57.91221, 0.003109962, NaN, NaN, NaN, 0.0433376, "- N/A -   "
1.81, 59.2096, 0.0031766, NaN, NaN, NaN, 0.0433376, "- N/A -   "
1.85, 60.5071, 0.0032488, NaN, NaN, NaN, 0.04089605, "- N/A -   "
1.89, 62.0404, 0.00332933, NaN, NaN, NaN, 0.0347922, "- N/A -   "
1.93, 63.45574, 0.00340152, NaN, NaN, NaN, 0.0323506, "- N/A -   "
1.97, 64.75317, 0.00347372, NaN, NaN, NaN, 0.0299091, "- N/A -   "
2.01, 65.93263, 0.00354036, NaN, NaN, NaN, 0.0299091, "- N/A -   "
2.05, 67.1121, 0.00360145, NaN, NaN, NaN, 0.0323506, "- N/A -   "
2.09, 68.17364, 0.00366254, NaN, NaN, NaN, 0.0347922, "- N/A -   "
2.13, 69.23517, 0.0037264, NaN, NaN, NaN, 0.03601294, "- N/A -   "
2.17, 70.6505, 0.0037986, NaN, NaN, NaN, 0.0335714, "- N/A -   "
2.21, 71.83001, 0.00386802, NaN, NaN, NaN, 0.0323506, "- N/A -   "
2.25, 73.12743, 0.00393188, NaN, NaN, NaN, 0.0335714, "- N/A -   "
2.29, 74.3069, 0.003992969, NaN, NaN, NaN, 0.03601294, "- N/A -   "
2.33, 75.36844, 0.00405406, NaN, NaN, NaN, 0.0384545, "- N/A -   "
2.37, 76.43, 0.00411515, NaN, NaN, NaN, 0.04089605, "- N/A -   "
2.41, 77.49149, 0.00417346, NaN, NaN, NaN, 0.0445584, "- N/A -   "
2.45, 78.78891, 0.00424843, NaN, NaN, NaN, 0.04211683, "- N/A -   "
2.49, 80.20428, 0.004312296, NaN, NaN, NaN, 0.04211683, "- N/A -   "
2.53, 81.5017, 0.004384491, NaN, NaN, NaN, 0.0396753, "- N/A -   "
2.57, 82.79912, 0.00445946, NaN, NaN, NaN, 0.03601294, "- N/A -   "
2.61, 84.09654, 0.00452611, NaN, NaN, NaN, 0.03601294, "- N/A -   "
2.65, 85.39397, 0.004592748, NaN, NaN, NaN, 0.03601294, "- N/A -   "
2.69, 86.69139, 0.004664943, NaN, NaN, NaN, 0.0335714, "- N/A -   "
2.73, 87.8709, 0.00473159, NaN, NaN, NaN, 0.0347922, "- N/A -   "
2.77, 89.16828, 0.004801004, NaN, NaN, NaN, 0.0323506, "- N/A -   "
2.81, 90.34776, 0.004864869, NaN, NaN, NaN, 0.0335714, "- N/A -   "
2.85, 91.52724, 0.00493151, NaN, NaN, NaN, 0.0335714, "- N/A -   "
2.89, 92.82466, 0.004998153, NaN, NaN, NaN, 0.0335714, "- N/A -   "
2.93, 94.1221, 0.0050648, NaN, NaN, NaN, 0.0335714, "- N/A -   "
2.97, 95.18361, 0.005128661, NaN, NaN, NaN, 0.0347922, "- N/A -   "
3.01, 96.481, 0.005198079, NaN, NaN, NaN, 0.0347922, "- N/A -   "
[...]
25.64, 970.4189, 0.0428842, NaN, NaN, NaN, 0.04699994, "- N/A -   "
25.82, 979.0534, 0.0432118, NaN, NaN, NaN, 0.0347922, "- N/A -   "
26, 986.623, 0.0435089, NaN, NaN, NaN, 0.03601294, "- N/A -   "
26.18, 994.548, 0.0438116, NaN, NaN, NaN, 0.03601294, "- N/A -   "
26.36, 1002.12, 0.0441059, NaN, NaN, NaN, 0.0384545, "- N/A -   "
26.54, 1009.69, 0.04440859, NaN, NaN, NaN, 0.0372337, "- N/A -   "
26.72, 1017.65, 0.04471126, NaN, NaN, NaN, 0.03601294, "- N/A -   "
26.9, 1025.64, 0.0450167, NaN, NaN, NaN, 0.0335714, "- N/A -   "
27.08, 1032.68, 0.0452916, NaN, NaN, NaN, 0.0445584, "- N/A -   "
27.26, 1041.26, 0.0456137, NaN, NaN, NaN, 0.0347922, "- N/A -   "
27.44, 1049.13, 0.0459191, NaN, NaN, NaN, 0.0323506, "- N/A -   "
27.62, 1056.41, 0.0462024, NaN, NaN, NaN, 0.0396753, "- N/A -   "
27.8, 1064.04, 0.04649671, NaN, NaN, NaN, 0.04211683, "- N/A -   "
27.98, 1072.51, 0.0468188, NaN, NaN, NaN, 0.0323506, "- N/A -   "
28.16, 1080.62, 0.04712981, NaN, NaN, NaN, 0.0274675, "- N/A -   "
28.34, 1087.17, 0.0473908, NaN, NaN, NaN, 0.0445584, "- N/A -   "
28.52, 1095.28, 0.0476963, NaN, NaN, NaN, 0.04211683, "- N/A -   "
28.7, 1103.75, 0.0480239, NaN, NaN, NaN, 0.0299091, "- N/A -   "
28.88, 1111.14, 0.0483044, NaN, NaN, NaN, 0.0384545, "- N/A -   "
29.06, 1118.66, 0.04859316, NaN, NaN, NaN, 0.0433376, "- N/A -   "
29.24, 1127.24, 0.0489208, NaN, NaN, NaN, 0.03112983, "- N/A -   "
29.42, 1134.76, 0.0492096, NaN, NaN, NaN, 0.03601294, "- N/A -   "
29.6, 1142.75, 0.0495123, NaN, NaN, NaN, 0.0347922, "- N/A -   "
29.78, 1150.259, 0.049801, NaN, NaN, NaN, 0.0396753, "- N/A -   "
29.96, 1158.25, 0.0501093, NaN, NaN, NaN, 0.03601294, "- N/A -   "
30.14, 1166.12, 0.0504119, NaN, NaN, NaN, 0.0347922, "- N/A -   "
30.32, 1173.99, 0.05071182, NaN, NaN, NaN, 0.0347922, "- N/A -   "
30.5, 1181.38, 0.050995, NaN, NaN, NaN, 0.04211683, "- N/A -   "
30.68, 1189.85, 0.05131993, NaN, NaN, NaN, 0.0323506, "- N/A -   "
30.86, 1197.96, 0.0516281, NaN, NaN, NaN, 0.0286883, "- N/A -   "
31.04, 1204.76, 0.0518947, NaN, NaN, NaN, 0.0433376, "- N/A -   "
31.22, 1212.15, 0.0521863, NaN, NaN, NaN, 0.04699994, "- N/A -   "
31.4, 1220.98, 0.05252504, NaN, NaN, NaN, 0.0299091, "- N/A -   "
31.58, 1228.73, 0.05282215, NaN, NaN, NaN, 0.03112983, "- N/A -   "
31.76, 1235.4, 0.0530915, NaN, NaN, NaN, 0.0445584, "- N/A -   "
31.94, 1243.87, 0.0534108, NaN, NaN, NaN, 0.03601294, "- N/A -   "
32.12, 1252.22, 0.05373015, NaN, NaN, NaN, 0.0274675, "- N/A -   "
32.299, 1259.37, 0.0540106, NaN, NaN, NaN, 0.03601294, "- N/A -   "
32.479, 1266.53, 0.05429105, NaN, NaN, NaN, 0.0445584, "- N/A -   "
32.659, 1275.12, 0.0546159, NaN, NaN, NaN, 0.0335714, "- N/A -   "
32.84, 1282.63, 0.0549103, NaN, NaN, NaN, 0.03601294, "- N/A -   "
33.02, 1290.26, 0.0552074, NaN, NaN, NaN, 0.0372337, "- N/A -   "
33.2, 1297.77, 0.05549894, NaN, NaN, NaN, 0.04089605, "- N/A -   "
33.38, 1306, 0.0558127, NaN, NaN, NaN, 0.0347922, "- N/A -   "
33.56, 1313.75, 0.0561182, NaN, NaN, NaN, 0.0323506, "- N/A -   "
33.74, 1321.39, 0.0564153, NaN, NaN, NaN, 0.0335714, "- N/A -   "
33.92, 1328.3, 0.0566874, NaN, NaN, NaN, 0.04577916, "- N/A -   "
34.1, 1337.01, 0.057015, NaN, NaN, NaN, 0.0335714, "- N/A -   "
34.28, 1345, 0.057326, NaN, NaN, NaN, 0.0286883, "- N/A -   "
34.46, 1351.68, 0.05759261, NaN, NaN, NaN, 0.0433376, "- N/A -   "
34.64, 1359.55, 0.05789528, NaN, NaN, NaN, 0.04211683, "- N/A -   "
34.82, 1368.01, 0.0582229, NaN, NaN, NaN, 0.03112983, "- N/A -   "
35, 1375.65, 0.05852282, NaN, NaN, NaN, 0.03112983, "- N/A -   "
35.18, 1382.56, 0.0587922, NaN, NaN, NaN, 0.0433376, "- N/A -   "
35.252, 1385.66, 0.0589116, NaN, NaN, NaN, 0.0445584, "- N/A -   "