Folder: DigitalTwins-Machine-Learning/2_Tensile_Data (part 20)

File: Hamel_ForceTest_Bolt6_Test5.csv
Time, Load (lb), Position (in), AxialStrain (in), TransverseStrain (in), Auxiliary (), Control Out (V), Stress (psi)
0.0, 1.53332, 0.0, NaN, NaN, NaN, 0.0982726, "- N/A -   "
0.01, 2.241, 3.054427E-5, NaN, NaN, NaN, 0.105597, "- N/A -   "
0.02, 2.94869, 6.386529E-5, NaN, NaN, NaN, 0.106818, "- N/A -   "
0.03, 3.774319, 9.99631e-05, NaN, NaN, NaN, 0.0982726, "- N/A -   "
0.04, 4.36406, 0.000130507, NaN, NaN, NaN, 0.09094793, "- N/A -   "
0.05, 5.18969, 1.610516E-4, NaN, NaN, NaN, 0.084844, "- N/A -   "
0.06, 5.66148, 0.000191596, NaN, NaN, NaN, 0.0799609, "- N/A -   "
0.07, 6.369163, 2.193634E-4, NaN, NaN, NaN, 0.0750778, "- N/A -   "
0.08, 6.9589, 2.471309E-4, NaN, NaN, NaN, 0.0701947, "- N/A -   "
0.09, 7.430691, 0.000269345, NaN, NaN, NaN, 0.06653238, "- N/A -   "
0.1, 7.90248, 0.000297112, NaN, NaN, NaN, 0.06287005, "- N/A -   "
0.11, 8.492218, 0.000319326, NaN, NaN, NaN, 0.0604285, "- N/A -   "
0.12, 8.964007, 0.00034154, NaN, NaN, NaN, 0.0579869, "- N/A -   "
0.13, 9.435798, 3.637545E-4, NaN, NaN, NaN, 0.0555454, "- N/A -   "
0.14, 9.907588, 3.859685E-4, NaN, NaN, NaN, 0.05188305, "- N/A -   "
0.15, 10.3794, 4.081825E-4, NaN, NaN, NaN, 0.0494415, "- N/A -   "
0.16, 10.8512, 0.000430397, NaN, NaN, NaN, 0.04699994, "- N/A -   "
0.17, 11.323, 0.000452611, NaN, NaN, NaN, 0.0445584, "- N/A -   "
0.18, 11.6768, 4.720478E-4, NaN, NaN, NaN, 0.0433376, "- N/A -   "
0.19, 12.2665, 4.970386E-4, NaN, NaN, NaN, 0.04089605, "- N/A -   "
0.2, 12.6204, 5.164758E-4, NaN, NaN, NaN, 0.0396753, "- N/A -   "
0.21, 13.09217, 5.359131E-4, NaN, NaN, NaN, 0.0372337, "- N/A -   "
0.22, 13.446, 5.553504E-4, NaN, NaN, NaN, 0.0372337, "- N/A -   "
0.23, 13.7999, 5.720109E-4, NaN, NaN, NaN, 0.0372337, "- N/A -   "
0.24, 14.1537, 0.000588671, NaN, NaN, NaN, 0.03601294, "- N/A -   "
0.25, 14.5075, 0.000602555, NaN, NaN, NaN, 0.0372337, "- N/A -   "
0.26, 14.7434, 0.000619216, NaN, NaN, NaN, 0.0372337, "- N/A -   "
0.27, 15.0973, 0.000635876, NaN, NaN, NaN, 0.0384545, "- N/A -   "
0.28, 15.3332, 6.497599E-4, NaN, NaN, NaN, 0.0384545, "- N/A -   "
0.29, 15.687, 0.00066642, NaN, NaN, NaN, 0.0384545, "- N/A -   "
0.3, 16.0409, 6.858577E-4, NaN, NaN, NaN, 0.0384545, "- N/A -   "
0.31, 16.3947, 7.025182E-4, NaN, NaN, NaN, 0.0372337, "- N/A -   "
0.32, 16.6306, 7.191787E-4, NaN, NaN, NaN, 0.0372337, "- N/A -   "
0.33, 17.1024, 0.000733062, NaN, NaN, NaN, 0.0384545, "- N/A -   "
0.34, 17.4562, 0.000746946, NaN, NaN, NaN, 0.0396753, "- N/A -   "
0.35, 17.5742, 7.6083E-4, NaN, NaN, NaN, 0.04089605, "- N/A -   "
0.36, 17.8101, 0.000774714, NaN, NaN, NaN, 0.04211683, "- N/A -   "
0.42, 19.6972, 8.663466E-4, NaN, NaN, NaN, 0.04577916, "- N/A -   "
0.48, 21.7023, 9.663096E-4, NaN, NaN, NaN, 0.04699994, "- N/A -   "
0.54, 23.9433, 0.00107183, NaN, NaN, NaN, 0.0433376, "- N/A -   "
0.6, 26.18434, 0.0011829, NaN, NaN, NaN, 0.0384545, "- N/A -   "
0.66, 28.42534, 0.00128841, NaN, NaN, NaN, 0.03601294, "- N/A -   "
0.72, 30.5484, 0.00139671, NaN, NaN, NaN, 0.0323506, "- N/A -   "
0.78, 32.67145, 0.001499446, NaN, NaN, NaN, 0.03112983, "- N/A -   "
0.84, 34.7945, 0.00160496, NaN, NaN, NaN, 0.0286883, "- N/A -   "
0.9, 36.5637, 0.00170215, NaN, NaN, NaN, 0.03112983, "- N/A -   "
0.96, 38.3329, 0.001791, NaN, NaN, NaN, 0.0347922, "- N/A -   "
1.02, 40.22009, 0.00187708, NaN, NaN, NaN, 0.04089605, "- N/A -   "
1.08, 42.1072, 0.00197149, NaN, NaN, NaN, 0.0445584, "- N/A -   "
1.14, 44.2303, 0.00207146, NaN, NaN, NaN, 0.0445584, "- N/A -   "
1.2, 46.23541, 0.002168643, NaN, NaN, NaN, 0.04577916, "- N/A -   "
1.26, 48.7123, 0.00227971, NaN, NaN, NaN, 0.04089605, "- N/A -   "
1.32, 51.0713, 0.002396337, NaN, NaN, NaN, 0.0323506, "- N/A -   "
1.38, 53.19431, 0.00250185, NaN, NaN, NaN, 0.03112983, "- N/A -   "
1.44, 55.0815, 0.002596263, NaN, NaN, NaN, 0.0323506, "- N/A -   "
1.5, 56.9686, 0.00269067, NaN, NaN, NaN, 0.03601294, "- N/A -   "
1.56, 58.9737, 0.00278508, NaN, NaN, NaN, 0.0372337, "- N/A -   "
1.62, 61.2147, 0.00288505, NaN, NaN, NaN, 0.0384545, "- N/A -   "
1.68, 63.33779, 0.00298501, NaN, NaN, NaN, 0.0384545, "- N/A -   "
1.74, 65.22495, 0.00307664, NaN, NaN, NaN, 0.04089605, "- N/A -   "
1.8, 67.23006, 0.00317105, NaN, NaN, NaN, 0.0445584, "- N/A -   "
1.86, 69.35311, 0.00327101, NaN, NaN, NaN, 0.0433376, "- N/A -   "
1.92, 71.83001, 0.00338764, NaN, NaN, NaN, 0.0372337, "- N/A -   "
1.98, 74.3069, 0.00349871, NaN, NaN, NaN, 0.03112983, "- N/A -   "
2.04, 76.43, 0.00360145, NaN, NaN, NaN, 0.0299091, "- N/A -   "
2.1, 78.4351, 0.00369586, NaN, NaN, NaN, 0.0323506, "- N/A -   "
2.16, 80.44018, 0.00379027, NaN, NaN, NaN, 0.03601294, "- N/A -   "
2.22, 82.79912, 0.00389301, NaN, NaN, NaN, 0.0335714, "- N/A -   "
2.28, 84.92217, 0.003995746, NaN, NaN, NaN, 0.0335714, "- N/A -   "
2.34, 86.92729, 0.00409016, NaN, NaN, NaN, 0.03601294, "- N/A -   "
2.4, 88.9324, 0.00417901, NaN, NaN, NaN, 0.0396753, "- N/A -   "
2.46, 90.9375, 0.004273421, NaN, NaN, NaN, 0.04211683, "- N/A -   "
2.52, 93.1785, 0.00437894, NaN, NaN, NaN, 0.04089605, "- N/A -   "
2.58, 95.30156, 0.0044789, NaN, NaN, NaN, 0.0396753, "- N/A -   "
2.64, 97.6605, 0.004587194, NaN, NaN, NaN, 0.0372337, "- N/A -   "
2.7, 99.9015, 0.004687157, NaN, NaN, NaN, 0.03601294, "- N/A -   "
2.76, 102.143, 0.00479545, NaN, NaN, NaN, 0.0335714, "- N/A -   "
2.82, 104.384, 0.00489541, NaN, NaN, NaN, 0.0323506, "- N/A -   "
2.88, 106.271, 0.0049926, NaN, NaN, NaN, 0.0347922, "- N/A -   "
2.94, 108.512, 0.005092563, NaN, NaN, NaN, 0.0335714, "- N/A -   "
3, 110.517, 0.00519253, NaN, NaN, NaN, 0.0347922, "- N/A -   "
3.06, 112.522, 0.00528694, NaN, NaN, NaN, 0.03601294, "- N/A -   "
3.12, 114.527, 0.00538135, NaN, NaN, NaN, 0.0384545, "- N/A -   "
3.18, 116.5321, 0.00547853, NaN, NaN, NaN, 0.04089605, "- N/A -   "
3.24, 118.419, 0.005572941, NaN, NaN, NaN, 0.0433376, "- N/A -   "
3.3, 120.66, 0.00567568, NaN, NaN, NaN, 0.04089605, "- N/A -   "
3.36, 123.137, 0.00578953, NaN, NaN, NaN, 0.03601294, "- N/A -   "
3.42, 125.26, 0.00589504, NaN, NaN, NaN, 0.0323506, "- N/A -   "
3.48, 127.265, 0.005997784, NaN, NaN, NaN, 0.03112983, "- N/A -   "
3.54, 129.152, 0.00609219, NaN, NaN, NaN, 0.03601294, "- N/A -   "
3.6, 131.511, 0.006203264, NaN, NaN, NaN, 0.0299091, "- N/A -   "
3.66, 133.399, 0.006303226, NaN, NaN, NaN, 0.0299091, "- N/A -   "
3.72, 135.1678, 0.00639486, NaN, NaN, NaN, 0.0335714, "- N/A -   "
3.78, 136.819, 0.00648094, NaN, NaN, NaN, 0.04089605, "- N/A -   "
3.84, 138.47, 0.006567018, NaN, NaN, NaN, 0.04699994, "- N/A -   "
3.9, 140.24, 0.006661428, NaN, NaN, NaN, 0.0482207, "- N/A -   "
3.96, 142.5985, 0.006772498, NaN, NaN, NaN, 0.0445584, "- N/A -   "
4.02, 144.8395, 0.00688634, NaN, NaN, NaN, 0.0372337, "- N/A -   "
4.08, 146.8446, 0.006994638, NaN, NaN, NaN, 0.0335714, "- N/A -   "
4.14, 148.968, 0.00710015, NaN, NaN, NaN, 0.03112983, "- N/A -   "
4.2, 150.973, 0.00720567, NaN, NaN, NaN, 0.0286883, "- N/A -   "
4.26, 152.86, 0.00730563, NaN, NaN, NaN, 0.0286883, "- N/A -   "
4.32, 154.629, 0.00740004, NaN, NaN, NaN, 0.03112983, "- N/A -   "
4.38, 156.162, 0.00748612, NaN, NaN, NaN, 0.0372337, "- N/A -   "
4.44, 157.696, 0.00757498, NaN, NaN, NaN, 0.04211683, "- N/A -   "
4.5, 159.583, 0.007669389, NaN, NaN, NaN, 0.0445584, "- N/A -   "
4.56, 161.4701, 0.00776935, NaN, NaN, NaN, 0.0445584, "- N/A -   "
4.62, 163.357, 0.007872092, NaN, NaN, NaN, 0.0433376, "- N/A -   "
[...]
20.53, 743.32, 0.0344067, NaN, NaN, NaN, 0.03601294, "- N/A -   "
20.65, 748.524, 0.0346122, NaN, NaN, NaN, 0.0323506, "- N/A -   "
20.77, 753.965, 0.0348177, NaN, NaN, NaN, 0.0299091, "- N/A -   "
20.89, 758.2231, 0.0349871, NaN, NaN, NaN, 0.0433376, "- N/A -   "
21.01, 763.4274, 0.0351842, NaN, NaN, NaN, 0.0445584, "- N/A -   "
21.13, 769.4597, 0.0354119, NaN, NaN, NaN, 0.0335714, "- N/A -   "
21.25, 775.1372, 0.0356257, NaN, NaN, NaN, 0.0262467, "- N/A -   "
21.37, 780.105, 0.0358201, NaN, NaN, NaN, 0.0286883, "- N/A -   "
21.49, 784.5997, 0.035995, NaN, NaN, NaN, 0.04089605, "- N/A -   "
21.61, 789.8041, 0.0361922, NaN, NaN, NaN, 0.04211683, "- N/A -   "
21.73, 795.1267, 0.0363949, NaN, NaN, NaN, 0.04089605, "- N/A -   "
21.85, 801.0407, 0.036617, NaN, NaN, NaN, 0.03112983, "- N/A -   "
21.97, 806.1268, 0.0368114, NaN, NaN, NaN, 0.0335714, "- N/A -   "
22.09, 811.2129, 0.0370002, NaN, NaN, NaN, 0.0384545, "- N/A -   "
22.21, 816.299, 0.03719459, NaN, NaN, NaN, 0.04211683, "- N/A -   "
22.33, 821.2667, 0.0373862, NaN, NaN, NaN, 0.04577916, "- N/A -   "
22.45, 827.5356, 0.0376194, NaN, NaN, NaN, 0.0299091, "- N/A -   "
22.57, 832.5034, 0.03781103, NaN, NaN, NaN, 0.0335714, "- N/A -   "
22.69, 837.944, 0.038011, NaN, NaN, NaN, 0.0335714, "- N/A -   "
22.81, 843.1487, 0.0382053, NaN, NaN, NaN, 0.03601294, "- N/A -   "
22.93, 847.88, 0.03839137, NaN, NaN, NaN, 0.04211683, "- N/A -   "
23.05, 853.321, 0.0385969, NaN, NaN, NaN, 0.04089605, "- N/A -   "
23.17, 858.9983, 0.0388079, NaN, NaN, NaN, 0.03601294, "- N/A -   "
23.29, 864.558, 0.0390134, NaN, NaN, NaN, 0.0323506, "- N/A -   "
23.41, 869.407, 0.03919941, NaN, NaN, NaN, 0.0384545, "- N/A -   "
23.53, 874.848, 0.0394077, NaN, NaN, NaN, 0.0347922, "- N/A -   "
23.65, 879.9341, 0.0395965, NaN, NaN, NaN, 0.0396753, "- N/A -   "
23.77, 885.2567, 0.0397936, NaN, NaN, NaN, 0.04089605, "- N/A -   "
23.89, 891.289, 0.04001855, NaN, NaN, NaN, 0.0299091, "- N/A -   "
24.01, 896.257, 0.04021292, NaN, NaN, NaN, 0.0335714, "- N/A -   "
24.13, 901.934, 0.040424, NaN, NaN, NaN, 0.0286883, "- N/A -   "
24.25, 906.3107, 0.0405933, NaN, NaN, NaN, 0.04089605, "- N/A -   "
24.37, 911.16, 0.0407766, NaN, NaN, NaN, 0.0482207, "- N/A -   "
24.49, 917.3108, 0.0410015, NaN, NaN, NaN, 0.0372337, "- N/A -   "
24.61, 922.7517, 0.0412098, NaN, NaN, NaN, 0.0335714, "- N/A -   "
24.73, 928.3109, 0.0414153, NaN, NaN, NaN, 0.03112983, "- N/A -   "
24.85, 933.16, 0.0416013, NaN, NaN, NaN, 0.0372337, "- N/A -   "
24.97, 937.892, 0.0417846, NaN, NaN, NaN, 0.0445584, "- N/A -   "
25.09, 943.3326, 0.04199, NaN, NaN, NaN, 0.04211683, "- N/A -   "
25.21, 949.601, 0.04221496, NaN, NaN, NaN, 0.03112983, "- N/A -   "
25.33, 955.042, 0.0424204, NaN, NaN, NaN, 0.0286883, "- N/A -   "
25.45, 960.1284, 0.04261204, NaN, NaN, NaN, 0.0323506, "- N/A -   "
25.57, 965.3328, 0.04280919, NaN, NaN, NaN, 0.0335714, "- N/A -   "
25.69, 970.064, 0.0429869, NaN, NaN, NaN, 0.0445584, "- N/A -   "
25.81, 975.7415, 0.04319793, NaN, NaN, NaN, 0.0396753, "- N/A -   "
25.93, 981.6556, 0.04341452, NaN, NaN, NaN, 0.0323506, "- N/A -   "
26.05, 986.623, 0.04360056, NaN, NaN, NaN, 0.0372337, "- N/A -   "
26.17, 992.1826, 0.0438116, NaN, NaN, NaN, 0.0335714, "- N/A -   "
26.29, 996.914, 0.04399208, NaN, NaN, NaN, 0.04211683, "- N/A -   "
26.41, 1002.473, 0.04419756, NaN, NaN, NaN, 0.0396753, "- N/A -   "
26.53, 1008.03, 0.044403, NaN, NaN, NaN, 0.0372337, "- N/A -   "
26.65, 1013.477, 0.04460852, NaN, NaN, NaN, 0.0347922, "- N/A -   "
26.77, 1019.2, 0.044814, NaN, NaN, NaN, 0.0335714, "- N/A -   "
26.83, 1021.82, 0.044914, NaN, NaN, NaN, 0.0323506, "- N/A -   "

File: Hamel_ForceTest_Bolt6_Test6.csv
Time, Load (lb), Position (in), AxialStrain (in), TransverseStrain (in), Auxiliary (), Control Out (V), Stress (psi)
0.0, 1.06153, 0.0, NaN, NaN, NaN, 0.09949338, "- N/A -   "
0.01, 1.06153, 2.77675e-05, NaN, NaN, NaN, 0.105597, "- N/A -   "
0.02, 1.17947, 6.108854E-5, NaN, NaN, NaN, 0.105597, "- N/A -   "
0.03, 1.41537, 9.16328e-05, NaN, NaN, NaN, 0.0982726, "- N/A -   "
0.04, 1.53332, 0.000122177, NaN, NaN, NaN, 0.09216871, "- N/A -   "
0.05, 1.53332, 1.499446E-4, NaN, NaN, NaN, 0.0872856, "- N/A -   "
0.06, 1.65126, 0.000174935, NaN, NaN, NaN, 0.08362327, "- N/A -   "
0.07, 1.76921, 0.000199926, NaN, NaN, NaN, 0.08118171, "- N/A -   "
0.08, 1.76921, 0.00022214, NaN, NaN, NaN, 0.07751938, "- N/A -   "
0.09, 1.88716, 2.471309E-4, NaN, NaN, NaN, 0.0750778, "- N/A -   "
0.1, 2.005107, 0.000266568, NaN, NaN, NaN, 0.07263627, "- N/A -   "
0.11, 2.12305, 0.000288782, NaN, NaN, NaN, 0.07141549, "- N/A -   "
0.12, 2.241, 3.109962E-4, NaN, NaN, NaN, 0.0689739, "- N/A -   "
0.13, 2.12305, 0.000327657, NaN, NaN, NaN, 0.06775316, "- N/A -   "
0.14, 2.241, 0.000352647, NaN, NaN, NaN, 0.0640908, "- N/A -   "
0.15, 2.35895, 3.748615E-4, NaN, NaN, NaN, 0.06164927, "- N/A -   "
0.16, 2.476897, 0.000394299, NaN, NaN, NaN, 0.0604285, "- N/A -   "
0.17, 2.59484, 4.13736E-4, NaN, NaN, NaN, 0.0592077, "- N/A -   "
0.18, 2.59484, 0.00043595, NaN, NaN, NaN, 0.05676616, "- N/A -   "
0.19, 2.59484, 0.000458164, NaN, NaN, NaN, 0.0543246, "- N/A -   "
0.2, 2.712792, 4.776013E-4, NaN, NaN, NaN, 0.0531038, "- N/A -   "
0.21, 2.83074, 0.000499815, NaN, NaN, NaN, 0.05188305, "- N/A -   "
0.22, 2.83074, 5.192526E-4, NaN, NaN, NaN, 0.05066227, "- N/A -   "
0.23, 2.94869, 5.414666E-4, NaN, NaN, NaN, 0.0482207, "- N/A -   "
0.24, 2.94869, 5.636806E-4, NaN, NaN, NaN, 0.04577916, "- N/A -   "
0.25, 2.94869, 5.831179E-4, NaN, NaN, NaN, 0.0433376, "- N/A -   "
0.26, 3.06663, 5.997784E-4, NaN, NaN, NaN, 0.0433376, "- N/A -   "
0.27, 3.18458, 6.219924E-4, NaN, NaN, NaN, 0.04211683, "- N/A -   "
0.28, 3.18458, 6.414297E-4, NaN, NaN, NaN, 0.04089605, "- N/A -   "
0.29, 3.30253, 6.608669E-4, NaN, NaN, NaN, 0.0396753, "- N/A -   "
0.3, 3.30253, 0.000677527, NaN, NaN, NaN, 0.0384545, "- N/A -   "
0.31, 3.42048, 0.000694188, NaN, NaN, NaN, 0.0384545, "- N/A -   "
0.32, 3.42048, 7.136252E-4, NaN, NaN, NaN, 0.0384545, "- N/A -   "
0.33, 3.53842, 7.302857E-4, NaN, NaN, NaN, 0.0384545, "- N/A -   "
0.34, 3.65637, 0.000746946, NaN, NaN, NaN, 0.0372337, "- N/A -   "
0.35, 3.65637, 0.000763607, NaN, NaN, NaN, 0.0372337, "- N/A -   "
0.36, 3.774319, 0.000783044, NaN, NaN, NaN, 0.0372337, "- N/A -   "
0.37, 3.89227, 7.997045E-4, NaN, NaN, NaN, 0.03601294, "- N/A -   "
0.38, 3.89227, 8.16365E-4, NaN, NaN, NaN, 0.03601294, "- N/A -   "
0.39, 4.010214, 0.000833026, NaN, NaN, NaN, 0.03601294, "- N/A -   "
0.4, 4.010214, 0.000849686, NaN, NaN, NaN, 0.03601294, "- N/A -   "
0.41, 4.12816, 8.663466E-4, NaN, NaN, NaN, 0.03601294, "- N/A -   "
0.42, 4.246109, 8.830071E-4, NaN, NaN, NaN, 0.03601294, "- N/A -   "
0.43, 4.246109, 0.000902444, NaN, NaN, NaN, 0.0347922, "- N/A -   "
0.44, 4.36406, 9.218816E-4, NaN, NaN, NaN, 0.0335714, "- N/A -   "
0.45, 4.36406, 0.000941319, NaN, NaN, NaN, 0.0323506, "- N/A -   "
0.46, 4.482, 9.635329E-4, NaN, NaN, NaN, 0.03112983, "- N/A -   "
0.47, 4.59995, 9.801934E-4, NaN, NaN, NaN, 0.0299091, "- N/A -   "
0.51, 4.953794, 0.00104961, NaN, NaN, NaN, 0.0286883, "- N/A -   "
0.55, 5.18969, 0.00111348, NaN, NaN, NaN, 0.0299091, "- N/A -   "
0.59, 5.425584, 0.001174566, NaN, NaN, NaN, 0.0323506, "- N/A -   "
0.63, 5.779426, 0.0012301, NaN, NaN, NaN, 0.0384545, "- N/A -   "
0.67, 6.13327, 0.00128564, NaN, NaN, NaN, 0.04211683, "- N/A -   "
0.71, 6.369163, 0.00134395, NaN, NaN, NaN, 0.04577916, "- N/A -   "
0.75, 6.723006, 0.00140781, NaN, NaN, NaN, 0.04699994, "- N/A -   "
0.79, 7.07685, 0.00148001, NaN, NaN, NaN, 0.0445584, "- N/A -   "
0.83, 7.548638, 0.001554981, NaN, NaN, NaN, 0.04089605, "- N/A -   "
0.87, 7.90248, 0.00162995, NaN, NaN, NaN, 0.0384545, "- N/A -   "
0.91, 8.37427, 0.00169937, NaN, NaN, NaN, 0.0372337, "- N/A -   "
0.95, 8.846061, 0.00177157, NaN, NaN, NaN, 0.0335714, "- N/A -   "
0.99, 9.31785, 0.00184099, NaN, NaN, NaN, 0.0323506, "- N/A -   "
1.03, 9.78964, 0.00191596, NaN, NaN, NaN, 0.0299091, "- N/A -   "
1.07, 10.26143, 0.00198538, NaN, NaN, NaN, 0.0286883, "- N/A -   "
1.11, 10.4973, 0.00204924, NaN, NaN, NaN, 0.0286883, "- N/A -   "
1.15, 10.9691, 0.00211588, NaN, NaN, NaN, 0.0286883, "- N/A -   "
1.19, 11.323, 0.00217697, NaN, NaN, NaN, 0.03112983, "- N/A -   "
1.23, 11.6768, 0.00223251, NaN, NaN, NaN, 0.03601294, "- N/A -   "
1.27, 12.14859, 0.00229082, NaN, NaN, NaN, 0.0396753, "- N/A -   "
1.31, 12.6204, 0.00234636, NaN, NaN, NaN, 0.0445584, "- N/A -   "
1.35, 12.9742, 0.00241022, NaN, NaN, NaN, 0.04577916, "- N/A -   "
1.39, 13.6819, 0.00247686, NaN, NaN, NaN, 0.04577916, "- N/A -   "
1.43, 14.1537, 0.00254628, NaN, NaN, NaN, 0.0445584, "- N/A -   "
1.47, 14.6255, 0.0026157, NaN, NaN, NaN, 0.0433376, "- N/A -   "
1.51, 15.0973, 0.00268512, NaN, NaN, NaN, 0.04211683, "- N/A -   "
1.55, 15.687, 0.00276009, NaN, NaN, NaN, 0.0384545, "- N/A -   "
1.59, 16.3947, 0.00283784, NaN, NaN, NaN, 0.0335714, "- N/A -   "
1.63, 16.86649, 0.00291281, NaN, NaN, NaN, 0.03112983, "- N/A -   "
1.67, 17.4562, 0.00297945, NaN, NaN, NaN, 0.0299091, "- N/A -   "
1.71, 17.928, 0.0030461, NaN, NaN, NaN, 0.0299091, "- N/A -   "
1.75, 18.5178, 0.003109962, NaN, NaN, NaN, 0.03112983, "- N/A -   "
1.79, 18.9895, 0.00317383, NaN, NaN, NaN, 0.0323506, "- N/A -   "
1.83, 19.4613, 0.00323769, NaN, NaN, NaN, 0.0347922, "- N/A -   "
1.87, 19.9331, 0.003298781, NaN, NaN, NaN, 0.03601294, "- N/A -   "
1.91, 20.52286, 0.00336265, NaN, NaN, NaN, 0.0372337, "- N/A -   "
1.95, 20.99465, 0.00343207, NaN, NaN, NaN, 0.03601294, "- N/A -   "
1.99, 21.46644, 0.00349593, NaN, NaN, NaN, 0.0372337, "- N/A -   "
2.03, 21.93823, 0.00355424, NaN, NaN, NaN, 0.04089605, "- N/A -   "
2.07, 22.41, 0.003615331, NaN, NaN, NaN, 0.0433376, "- N/A -   "
2.11, 22.88181, 0.00367642, NaN, NaN, NaN, 0.04699994, "- N/A -   "
2.15, 23.5895, 0.003748615, NaN, NaN, NaN, 0.0433376, "- N/A -   "
2.19, 24.5331, 0.00383192, NaN, NaN, NaN, 0.03601294, "- N/A -   "
2.23, 25.1228, 0.00390967, NaN, NaN, NaN, 0.03112983, "- N/A -   "
2.27, 25.7125, 0.00397909, NaN, NaN, NaN, 0.0299091, "- N/A -   "
2.31, 26.4202, 0.00404573, NaN, NaN, NaN, 0.0299091, "- N/A -   "
2.35, 27.01, 0.00410959, NaN, NaN, NaN, 0.0323506, "- N/A -   "
2.39, 27.5997, 0.00417068, NaN, NaN, NaN, 0.0335714, "- N/A -   "
2.43, 28.1894, 0.004234547, NaN, NaN, NaN, 0.0347922, "- N/A -   "
2.47, 29.0151, 0.00430397, NaN, NaN, NaN, 0.0335714, "- N/A -   "
2.51, 29.84071, 0.004376161, NaN, NaN, NaN, 0.03112983, "- N/A -   "
2.55, 30.4304, 0.00444003, NaN, NaN, NaN, 0.0323506, "- N/A -   "
2.59, 31.0202, 0.00450111, NaN, NaN, NaN, 0.03601294, "- N/A -   "
2.63, 31.6099, 0.0045622, NaN, NaN, NaN, 0.0384545, "- N/A -   "
2.67, 32.08171, 0.00461774, NaN, NaN, NaN, 0.04211683, "- N/A -   "
2.71, 32.9073, 0.004678827, NaN, NaN, NaN, 0.0445584, "- N/A -   "
2.75, 33.49708, 0.00475102, NaN, NaN, NaN, 0.04211683, "- N/A -   "
2.79, 34.4407, 0.004823218, NaN, NaN, NaN, 0.04089605, "- N/A -   "
2.83, 35.2663, 0.00488986, NaN, NaN, NaN, 0.0396753, "- N/A -   "
[...]
26.43, 872.128, 0.04423921, NaN, NaN, NaN, 0.0347922, "- N/A -   "
26.61, 879.4609, 0.0445169, NaN, NaN, NaN, 0.0433376, "- N/A -   "
26.79, 888.095, 0.0448334, NaN, NaN, NaN, 0.0372337, "- N/A -   "
26.97, 896.257, 0.0451389, NaN, NaN, NaN, 0.0335714, "- N/A -   "
27.15, 904.2999, 0.0454388, NaN, NaN, NaN, 0.0335714, "- N/A -   "
27.33, 911.752, 0.045722, NaN, NaN, NaN, 0.04089605, "- N/A -   "
27.51, 920.031, 0.04602466, NaN, NaN, NaN, 0.0396753, "- N/A -   "
27.69, 928.3109, 0.04633288, NaN, NaN, NaN, 0.03601294, "- N/A -   "
27.87, 936.4723, 0.0466411, NaN, NaN, NaN, 0.0323506, "- N/A -   "
28.05, 943.687, 0.04691322, NaN, NaN, NaN, 0.0445584, "- N/A -   "
28.23, 952.4402, 0.0472381, NaN, NaN, NaN, 0.0347922, "- N/A -   "
28.41, 960.9565, 0.04755465, NaN, NaN, NaN, 0.0274675, "- N/A -   "
28.59, 967.935, 0.04781844, NaN, NaN, NaN, 0.0433376, "- N/A -   "
28.77, 975.8598, 0.04811278, NaN, NaN, NaN, 0.04577916, "- N/A -   "
28.95, 984.967, 0.04844599, NaN, NaN, NaN, 0.0299091, "- N/A -   "
29.13, 992.8923, 0.0487348, NaN, NaN, NaN, 0.03601294, "- N/A -   "
29.31, 1000.46, 0.04902078, NaN, NaN, NaN, 0.04211683, "- N/A -   "
29.49, 1009.215, 0.04933455, NaN, NaN, NaN, 0.0347922, "- N/A -   "
29.67, 1017.65, 0.0496483, NaN, NaN, NaN, 0.0299091, "- N/A -   "
29.85, 1025.52, 0.0499371, NaN, NaN, NaN, 0.0335714, "- N/A -   "
30.03, 1032.8, 0.05020645, NaN, NaN, NaN, 0.04699994, "- N/A -   "
30.21, 1041.859, 0.05053133, NaN, NaN, NaN, 0.03601294, "- N/A -   "
30.39, 1050.21, 0.0508395, NaN, NaN, NaN, 0.0323506, "- N/A -   "
30.57, 1058.08, 0.0511367, NaN, NaN, NaN, 0.0347922, "- N/A -   "
30.75, 1065.95, 0.05141989, NaN, NaN, NaN, 0.04211683, "- N/A -   "
30.93, 1074.534, 0.0517337, NaN, NaN, NaN, 0.03601294, "- N/A -   "
31.11, 1082.88, 0.0520419, NaN, NaN, NaN, 0.0323506, "- N/A -   "
31.29, 1090.99, 0.052339, NaN, NaN, NaN, 0.0347922, "- N/A -   "
31.47, 1098.15, 0.05261112, NaN, NaN, NaN, 0.04699994, "- N/A -   "
31.65, 1107.09, 0.052936, NaN, NaN, NaN, 0.0347922, "- N/A -   "
31.83, 1115.44, 0.05324144, NaN, NaN, NaN, 0.0323506, "- N/A -   "
32.01, 1122.831, 0.05351911, NaN, NaN, NaN, 0.04211683, "- N/A -   "
32.19, 1130.94, 0.053819, NaN, NaN, NaN, 0.04211683, "- N/A -   "
32.37, 1140.12, 0.0541522, NaN, NaN, NaN, 0.0274675, "- N/A -   "
32.55, 1147.75, 0.0544354, NaN, NaN, NaN, 0.0347922, "- N/A -   "
32.73, 1155.39, 0.0547159, NaN, NaN, NaN, 0.0433376, "- N/A -   "
32.91, 1163.97, 0.0550269, NaN, NaN, NaN, 0.0384545, "- N/A -   "
33.09, 1172.32, 0.05533511, NaN, NaN, NaN, 0.0347922, "- N/A -   "
33.27, 1180.67, 0.05564333, NaN, NaN, NaN, 0.03112983, "- N/A -   "
33.45, 1188.06, 0.055921, NaN, NaN, NaN, 0.04089605, "- N/A -   "
33.63, 1196.77, 0.056232, NaN, NaN, NaN, 0.0372337, "- N/A -   "
33.81, 1205.23, 0.0565402, NaN, NaN, NaN, 0.0323506, "- N/A -   "
33.99, 1213.58, 0.05684844, NaN, NaN, NaN, 0.0286883, "- N/A -   "
34.17, 1220.5, 0.057115, NaN, NaN, NaN, 0.0433376, "- N/A -   "
34.35, 1229.08, 0.05742323, NaN, NaN, NaN, 0.0396753, "- N/A -   "
34.53, 1237.79, 0.0577426, NaN, NaN, NaN, 0.03112983, "- N/A -   "
34.71, 1245.78, 0.05803689, NaN, NaN, NaN, 0.0335714, "- N/A -   "
34.89, 1252.93, 0.05831179, NaN, NaN, NaN, 0.04577916, "- N/A -   "
35.07, 1262.12, 0.05864222, NaN, NaN, NaN, 0.0323506, "- N/A -   "
35.25, 1270.465, 0.0589504, NaN, NaN, NaN, 0.0286883, "- N/A -   "
35.43, 1277.74, 0.05921979, NaN, NaN, NaN, 0.04211683, "- N/A -   "
35.61, 1285.73, 0.0595169, NaN, NaN, NaN, 0.0445584, "- N/A -   "
35.79, 1294.79, 0.0598446, NaN, NaN, NaN, 0.03112983, "- N/A -   "
35.87, 1298.01, 0.05997506, NaN, NaN, NaN, 0.0323506, "- N/A -   "