Folder: DigitalTwins-Machine-Learning/2_Tensile_Data (part 37)

File: Hamel_ForceTest_Bolt9_Test7.csv
Time, Load (lb), Position (in), AxialStrain (in), TransverseStrain (in), Auxiliary (), Control Out (V), Stress (psi)
0.0, 13.446, 0.0, NaN, NaN, NaN, -0.007935055, "- N/A -   "
0.01, 13.446, 0.0, NaN, NaN, NaN, -6.103888E-4, "- N/A -   "
0.02, 13.446, 0.0, NaN, NaN, NaN, 0.006714277, "- N/A -   "
0.03, 13.446, 2.776752E-6, NaN, NaN, NaN, 0.0213636, "- N/A -   "
0.04, 13.446, 5.553504E-6, NaN, NaN, NaN, 0.0384545, "- N/A -   "
0.05, 13.446, 1.38838e-05, NaN, NaN, NaN, 0.0543246, "- N/A -   "
0.06, 13.564, 2.49908e-05, NaN, NaN, NaN, 0.0689739, "- N/A -   "
0.07, 13.9178, 4.16513e-05, NaN, NaN, NaN, 0.08118171, "- N/A -   "
0.08, 14.2716, 6.386529E-5, NaN, NaN, NaN, 0.09094793, "- N/A -   "
0.09, 14.5075, 9.16328e-05, NaN, NaN, NaN, 0.0982726, "- N/A -   "
0.1, 14.8614, 0.000124954, NaN, NaN, NaN, 0.104376, "- N/A -   "
0.11, 15.3332, 1.554981E-4, NaN, NaN, NaN, 0.0982726, "- N/A -   "
0.12, 15.687, 0.000186042, NaN, NaN, NaN, 0.09216871, "- N/A -   "
0.13, 15.9229, 0.000211033, NaN, NaN, NaN, 0.08850638, "- N/A -   "
0.14, 16.27675, 2.360239E-4, NaN, NaN, NaN, 0.084844, "- N/A -   "
0.15, 16.5126, 2.582379E-4, NaN, NaN, NaN, 0.08240249, "- N/A -   "
0.16, 16.74854, 0.000280452, NaN, NaN, NaN, 0.0799609, "- N/A -   "
0.17, 17.1024, 3.054427E-4, NaN, NaN, NaN, 0.0762986, "- N/A -   "
0.18, 17.3383, 0.000327657, NaN, NaN, NaN, 0.07385705, "- N/A -   "
0.19, 17.6921, 0.000349871, NaN, NaN, NaN, 0.07141549, "- N/A -   "
0.2, 17.928, 0.000372085, NaN, NaN, NaN, 0.0701947, "- N/A -   "
0.21, 18.046, 0.000391522, NaN, NaN, NaN, 0.06775316, "- N/A -   "
0.22, 18.2819, 0.000410959, NaN, NaN, NaN, 0.06653238, "- N/A -   "
0.23, 18.5178, 4.331733E-4, NaN, NaN, NaN, 0.0653116, "- N/A -   "
0.24, 18.8716, 0.000452611, NaN, NaN, NaN, 0.06287005, "- N/A -   "
0.25, 19.1075, 0.000474825, NaN, NaN, NaN, 0.06164927, "- N/A -   "
0.26, 19.2254, 4.970386E-4, NaN, NaN, NaN, 0.0592077, "- N/A -   "
0.27, 19.57928, 5.164758E-4, NaN, NaN, NaN, 0.05676616, "- N/A -   "
0.28, 19.6972, 5.359131E-4, NaN, NaN, NaN, 0.0555454, "- N/A -   "
0.29, 19.9331, 5.553504E-4, NaN, NaN, NaN, 0.0543246, "- N/A -   "
0.3, 20.287, 0.000580341, NaN, NaN, NaN, 0.05188305, "- N/A -   "
0.31, 20.4049, 0.000602555, NaN, NaN, NaN, 0.0494415, "- N/A -   "
0.32, 20.7588, 0.000624769, NaN, NaN, NaN, 0.04699994, "- N/A -   "
0.33, 20.8767, 6.442064E-4, NaN, NaN, NaN, 0.0445584, "- N/A -   "
0.34, 21.2305, 0.00066642, NaN, NaN, NaN, 0.04211683, "- N/A -   "
0.35, 21.46644, 0.000688634, NaN, NaN, NaN, 0.0396753, "- N/A -   "
0.36, 21.7023, 7.108485E-4, NaN, NaN, NaN, 0.0372337, "- N/A -   "
0.37, 21.93823, 7.302857E-4, NaN, NaN, NaN, 0.03601294, "- N/A -   "
0.38, 22.0562, 7.49723E-4, NaN, NaN, NaN, 0.0347922, "- N/A -   "
0.39, 22.29207, 7.663835E-4, NaN, NaN, NaN, 0.03601294, "- N/A -   "
0.45, 23.3536, 0.000860793, NaN, NaN, NaN, 0.0372337, "- N/A -   "
0.51, 24.5331, 9.635329E-4, NaN, NaN, NaN, 0.0372337, "- N/A -   "
0.57, 25.7125, 0.00106905, NaN, NaN, NaN, 0.0335714, "- N/A -   "
0.63, 26.7741, 0.00117179, NaN, NaN, NaN, 0.0323506, "- N/A -   "
0.69, 27.8356, 0.0012662, NaN, NaN, NaN, 0.0347922, "- N/A -   "
0.75, 28.7792, 0.00135228, NaN, NaN, NaN, 0.04089605, "- N/A -   "
0.81, 29.84071, 0.001443911, NaN, NaN, NaN, 0.0445584, "- N/A -   "
0.87, 31.0202, 0.001543874, NaN, NaN, NaN, 0.0445584, "- N/A -   "
0.93, 32.5535, 0.00165772, NaN, NaN, NaN, 0.0384545, "- N/A -   "
0.99, 33.73298, 0.00176324, NaN, NaN, NaN, 0.03601294, "- N/A -   "
1.05, 35.0304, 0.00186875, NaN, NaN, NaN, 0.0335714, "- N/A -   "
1.11, 36.44577, 0.00197705, NaN, NaN, NaN, 0.0299091, "- N/A -   "
1.17, 37.8611, 0.002082564, NaN, NaN, NaN, 0.0286883, "- N/A -   "
1.23, 39.04061, 0.002182527, NaN, NaN, NaN, 0.0274675, "- N/A -   "
1.29, 40.33803, 0.00227694, NaN, NaN, NaN, 0.03112983, "- N/A -   "
1.35, 41.39956, 0.00235746, NaN, NaN, NaN, 0.0384545, "- N/A -   "
1.41, 42.697, 0.00244632, NaN, NaN, NaN, 0.0433376, "- N/A -   "
1.47, 44.2303, 0.00254906, NaN, NaN, NaN, 0.0433376, "- N/A -   "
1.53, 45.6457, 0.00264624, NaN, NaN, NaN, 0.0445584, "- N/A -   "
1.59, 47.061, 0.002743431, NaN, NaN, NaN, 0.0445584, "- N/A -   "
1.65, 48.7123, 0.002854501, NaN, NaN, NaN, 0.04089605, "- N/A -   "
1.71, 50.5995, 0.00297112, NaN, NaN, NaN, 0.0323506, "- N/A -   "
1.77, 52.25073, 0.00307664, NaN, NaN, NaN, 0.0299091, "- N/A -   "
1.83, 53.902, 0.0031766, NaN, NaN, NaN, 0.0299091, "- N/A -   "
1.89, 55.3174, 0.00326546, NaN, NaN, NaN, 0.0347922, "- N/A -   "
1.95, 57.08658, 0.00336265, NaN, NaN, NaN, 0.0372337, "- N/A -   "
2.01, 58.7378, 0.003459833, NaN, NaN, NaN, 0.0372337, "- N/A -   "
2.07, 60.3891, 0.0035598, NaN, NaN, NaN, 0.0384545, "- N/A -   "
2.13, 61.9224, 0.00365143, NaN, NaN, NaN, 0.04211683, "- N/A -   "
2.19, 63.5737, 0.00374306, NaN, NaN, NaN, 0.0445584, "- N/A -   "
2.25, 65.3429, 0.00384025, NaN, NaN, NaN, 0.04577916, "- N/A -   "
2.31, 67.46596, 0.00395965, NaN, NaN, NaN, 0.0372337, "- N/A -   "
2.37, 69.47106, 0.00407349, NaN, NaN, NaN, 0.03112983, "- N/A -   "
2.43, 71.24027, 0.00417901, NaN, NaN, NaN, 0.0299091, "- N/A -   "
2.49, 72.89154, 0.00426787, NaN, NaN, NaN, 0.0335714, "- N/A -   "
2.55, 74.66075, 0.004365054, NaN, NaN, NaN, 0.0347922, "- N/A -   "
2.61, 76.6659, 0.004473347, NaN, NaN, NaN, 0.0323506, "- N/A -   "
2.67, 78.31712, 0.004567757, NaN, NaN, NaN, 0.0335714, "- N/A -   "
2.73, 79.85043, 0.004656613, NaN, NaN, NaN, 0.0396753, "- N/A -   "
2.79, 81.5017, 0.004745469, NaN, NaN, NaN, 0.0433376, "- N/A -   "
2.85, 83.50681, 0.004853762, NaN, NaN, NaN, 0.0396753, "- N/A -   "
2.91, 85.39397, 0.004956502, NaN, NaN, NaN, 0.0384545, "- N/A -   "
2.97, 87.16318, 0.005056465, NaN, NaN, NaN, 0.0384545, "- N/A -   "
3.03, 89.16828, 0.00516476, NaN, NaN, NaN, 0.03601294, "- N/A -   "
3.09, 90.9375, 0.00526472, NaN, NaN, NaN, 0.03601294, "- N/A -   "
3.15, 93.0606, 0.00537024, NaN, NaN, NaN, 0.0323506, "- N/A -   "
3.21, 94.8298, 0.0054702, NaN, NaN, NaN, 0.0323506, "- N/A -   "
3.27, 96.71693, 0.00556739, NaN, NaN, NaN, 0.0335714, "- N/A -   "
3.33, 98.60408, 0.00566457, NaN, NaN, NaN, 0.03601294, "- N/A -   "
3.39, 100.3733, 0.00576176, NaN, NaN, NaN, 0.03601294, "- N/A -   "
3.45, 102.3784, 0.0058645, NaN, NaN, NaN, 0.0347922, "- N/A -   "
3.51, 104.148, 0.005956133, NaN, NaN, NaN, 0.0384545, "- N/A -   "
3.57, 105.917, 0.00605054, NaN, NaN, NaN, 0.04211683, "- N/A -   "
3.63, 107.686, 0.006142175, NaN, NaN, NaN, 0.04577916, "- N/A -   "
3.69, 110.045, 0.006256022, NaN, NaN, NaN, 0.0396753, "- N/A -   "
3.75, 112.286, 0.00636987, NaN, NaN, NaN, 0.0347922, "- N/A -   "
3.81, 114.2911, 0.006467055, NaN, NaN, NaN, 0.0347922, "- N/A -   "
3.87, 116.178, 0.006567018, NaN, NaN, NaN, 0.03601294, "- N/A -   "
3.93, 118.183, 0.00666976, NaN, NaN, NaN, 0.0347922, "- N/A -   "
3.99, 120.66, 0.00678083, NaN, NaN, NaN, 0.0286883, "- N/A -   "
4.05, 122.665, 0.006878014, NaN, NaN, NaN, 0.0299091, "- N/A -   "
4.11, 124.435, 0.00696687, NaN, NaN, NaN, 0.0347922, "- N/A -   "
4.17, 125.85, 0.00704462, NaN, NaN, NaN, 0.04577916, "- N/A -   "
4.23, 128.091, 0.00713903, NaN, NaN, NaN, 0.04699994, "- N/A -   "
4.29, 130.214, 0.00724455, NaN, NaN, NaN, 0.04577916, "- N/A -   "
4.35, 132.573, 0.007352839, NaN, NaN, NaN, 0.04211683, "- N/A -   "
4.41, 134.932, 0.007466686, NaN, NaN, NaN, 0.03601294, "- N/A -   "
4.47, 137.173, 0.007566649, NaN, NaN, NaN, 0.0347922, "- N/A -   "
[...]
28.9, 1150.02, 0.0482627, NaN, NaN, NaN, 0.0445584, "- N/A -   "
29.11, 1160.75, 0.0486459, NaN, NaN, NaN, 0.0286883, "- N/A -   "
29.32, 1170.29, 0.04898746, NaN, NaN, NaN, 0.0335714, "- N/A -   "
29.53, 1179, 0.0493123, NaN, NaN, NaN, 0.0433376, "- N/A -   "
29.74, 1189.49, 0.04969, NaN, NaN, NaN, 0.03112983, "- N/A -   "
29.95, 1198.914, 0.0500343, NaN, NaN, NaN, 0.0335714, "- N/A -   "
30.16, 1208.22, 0.05037028, NaN, NaN, NaN, 0.0396753, "- N/A -   "
30.37, 1218.11, 0.05072848, NaN, NaN, NaN, 0.03601294, "- N/A -   "
30.58, 1227.65, 0.05108113, NaN, NaN, NaN, 0.0347922, "- N/A -   "
30.79, 1236.96, 0.05142267, NaN, NaN, NaN, 0.0396753, "- N/A -   "
31, 1246.85, 0.0517781, NaN, NaN, NaN, 0.0372337, "- N/A -   "
31.21, 1256.75, 0.05213907, NaN, NaN, NaN, 0.0323506, "- N/A -   "
31.42, 1265.695, 0.05247228, NaN, NaN, NaN, 0.0396753, "- N/A -   "
31.63, 1275.12, 0.0528166, NaN, NaN, NaN, 0.0433376, "- N/A -   "
31.84, 1285.37, 0.0531942, NaN, NaN, NaN, 0.0299091, "- N/A -   "
32.05, 1294.43, 0.0535274, NaN, NaN, NaN, 0.0372337, "- N/A -   "
32.26, 1303.38, 0.0538607, NaN, NaN, NaN, 0.0445584, "- N/A -   "
32.47, 1314.11, 0.0542522, NaN, NaN, NaN, 0.0274675, "- N/A -   "
32.68, 1322.94, 0.0545771, NaN, NaN, NaN, 0.0372337, "- N/A -   "
32.89, 1331.88, 0.0549047, NaN, NaN, NaN, 0.04699994, "- N/A -   "
33.1, 1342.49, 0.0552879, NaN, NaN, NaN, 0.0335714, "- N/A -   "
33.31, 1352.15, 0.0556378, NaN, NaN, NaN, 0.0323506, "- N/A -   "
33.52, 1361.1, 0.0559654, NaN, NaN, NaN, 0.04211683, "- N/A -   "
33.73, 1371.35, 0.05633474, NaN, NaN, NaN, 0.0335714, "- N/A -   "
33.94, 1380.89, 0.05668739, NaN, NaN, NaN, 0.0323506, "- N/A -   "
34.15, 1390.194, 0.0570317, NaN, NaN, NaN, 0.0347922, "- N/A -   "
34.36, 1398.9, 0.05735381, NaN, NaN, NaN, 0.04699994, "- N/A -   "
34.57, 1409.39, 0.057737, NaN, NaN, NaN, 0.0323506, "- N/A -   "
34.78, 1419.053, 0.0580869, NaN, NaN, NaN, 0.0335714, "- N/A -   "
34.99, 1427.52, 0.0584006, NaN, NaN, NaN, 0.0482207, "- N/A -   "
35.2, 1438.13, 0.0587866, NaN, NaN, NaN, 0.0323506, "- N/A -   "
35.41, 1447.91, 0.05914204, NaN, NaN, NaN, 0.03112983, "- N/A -   "
35.62, 1456.62, 0.0594614, NaN, NaN, NaN, 0.0445584, "- N/A -   "
35.83, 1466.99, 0.0598418, NaN, NaN, NaN, 0.0323506, "- N/A -   "
36.04, 1476.29, 0.0601861, NaN, NaN, NaN, 0.0347922, "- N/A -   "
36.25, 1485.36, 0.06051653, NaN, NaN, NaN, 0.0433376, "- N/A -   "
36.46, 1495.37, 0.06088584, NaN, NaN, NaN, 0.0335714, "- N/A -   "
36.67, 1504.91, 0.0612329, NaN, NaN, NaN, 0.0347922, "- N/A -   "
36.88, 1513.74, 0.06156892, NaN, NaN, NaN, 0.04211683, "- N/A -   "
37.09, 1523.52, 0.0619243, NaN, NaN, NaN, 0.0384545, "- N/A -   "
37.3, 1533.18, 0.06228532, NaN, NaN, NaN, 0.0347922, "- N/A -   "
37.51, 1542.598, 0.06263797, NaN, NaN, NaN, 0.0323506, "- N/A -   "
37.72, 1551.18, 0.06296007, NaN, NaN, NaN, 0.0445584, "- N/A -   "
37.93, 1561.32, 0.0633349, NaN, NaN, NaN, 0.0335714, "- N/A -   "
38.14, 1571.1, 0.06369869, NaN, NaN, NaN, 0.0286883, "- N/A -   "
38.35, 1579.21, 0.06400413, NaN, NaN, NaN, 0.04699994, "- N/A -   "
38.56, 1589.34, 0.06438176, NaN, NaN, NaN, 0.0347922, "- N/A -   "
38.77, 1599, 0.0647427, NaN, NaN, NaN, 0.03112983, "- N/A -   "
38.98, 1607.35, 0.0650593, NaN, NaN, NaN, 0.0445584, "- N/A -   "
39.19, 1617.25, 0.06542583, NaN, NaN, NaN, 0.0384545, "- N/A -   "
39.4, 1627.15, 0.06578958, NaN, NaN, NaN, 0.0323506, "- N/A -   "
39.61, 1635.97, 0.0661256, NaN, NaN, NaN, 0.0384545, "- N/A -   "
39.82, 1645.51, 0.06647544, NaN, NaN, NaN, 0.0384545, "- N/A -   "
40.03, 1655.05, 0.06683642, NaN, NaN, NaN, 0.0347922, "- N/A -   "
40.169, 1661.02, 0.0670669, NaN, NaN, NaN, 0.0335714, "- N/A -   "

File: Hamel_ForceTest_Bolt9_Test8.csv
Time, Load (lb), Position (in), AxialStrain (in), TransverseStrain (in), Auxiliary (), Control Out (V), Stress (psi)
0.0, 13.09217, 0.0, NaN, NaN, NaN, -0.007935055, "- N/A -   "
0.01, 12.9742, 2.776752E-6, NaN, NaN, NaN, -6.103888E-4, "- N/A -   "
0.02, 13.09217, 2.776752E-6, NaN, NaN, NaN, 0.01037661, "- N/A -   "
0.03, 13.09217, 2.776752E-6, NaN, NaN, NaN, 0.0299091, "- N/A -   "
0.04, 13.2101, 8.330256E-6, NaN, NaN, NaN, 0.04699994, "- N/A -   "
0.05, 13.3281, 2.2214e-05, NaN, NaN, NaN, 0.0604285, "- N/A -   "
0.06, 13.6819, 4.16513e-05, NaN, NaN, NaN, 0.07263627, "- N/A -   "
0.07, 13.9178, 6.386529E-5, NaN, NaN, NaN, 0.08240249, "- N/A -   "
0.08, 14.2716, 8.885606E-5, NaN, NaN, NaN, 0.0897272, "- N/A -   "
0.09, 14.6255, 0.0001194, NaN, NaN, NaN, 0.095831, "- N/A -   "
0.1, 14.9793, 0.000152721, NaN, NaN, NaN, 0.09338949, "- N/A -   "
0.11, 15.4511, 0.000183266, NaN, NaN, NaN, 0.0872856, "- N/A -   "
0.12, 15.805, 0.000211033, NaN, NaN, NaN, 0.08240249, "- N/A -   "
0.13, 16.1588, 2.360239E-4, NaN, NaN, NaN, 0.07874016, "- N/A -   "
0.14, 16.3947, 0.000261015, NaN, NaN, NaN, 0.0750778, "- N/A -   "
0.15, 16.86649, 2.832287E-4, NaN, NaN, NaN, 0.07141549, "- N/A -   "
0.16, 17.2203, 3.054427E-4, NaN, NaN, NaN, 0.0689739, "- N/A -   "
0.17, 17.4562, 0.000327657, NaN, NaN, NaN, 0.06775316, "- N/A -   "
0.18, 17.5742, 0.000344317, NaN, NaN, NaN, 0.06653238, "- N/A -   "
0.19, 17.928, 3.637545E-4, NaN, NaN, NaN, 0.06653238, "- N/A -   "
0.2, 18.046, 0.000383192, NaN, NaN, NaN, 0.0640908, "- N/A -   "
0.21, 18.2819, 0.000399852, NaN, NaN, NaN, 0.0640908, "- N/A -   "
0.22, 18.5178, 4.192895E-4, NaN, NaN, NaN, 0.06287005, "- N/A -   "
0.23, 18.6357, 0.00043595, NaN, NaN, NaN, 0.06287005, "- N/A -   "
0.24, 18.9895, 4.553873E-4, NaN, NaN, NaN, 0.06164927, "- N/A -   "
0.25, 19.2254, 0.000474825, NaN, NaN, NaN, 0.06164927, "- N/A -   "
0.26, 19.3434, 0.000491485, NaN, NaN, NaN, 0.0604285, "- N/A -   "
0.27, 19.57928, 5.081456E-4, NaN, NaN, NaN, 0.0604285, "- N/A -   "
0.28, 19.8152, 0.000527583, NaN, NaN, NaN, 0.0592077, "- N/A -   "
0.29, 20.05107, 5.470201E-4, NaN, NaN, NaN, 0.0579869, "- N/A -   "
0.3, 20.287, 0.000569234, NaN, NaN, NaN, 0.05676616, "- N/A -   "
0.31, 20.52286, 0.000588671, NaN, NaN, NaN, 0.0543246, "- N/A -   "
0.32, 20.7588, 6.108854E-4, NaN, NaN, NaN, 0.0531038, "- N/A -   "
0.33, 21.1126, 0.000630323, NaN, NaN, NaN, 0.05066227, "- N/A -   "
0.34, 21.3485, 6.497599E-4, NaN, NaN, NaN, 0.0494415, "- N/A -   "
0.35, 21.5844, 6.719739E-4, NaN, NaN, NaN, 0.04699994, "- N/A -   "
0.36, 21.8203, 6.914112E-4, NaN, NaN, NaN, 0.04577916, "- N/A -   "
0.37, 22.0562, 7.108485E-4, NaN, NaN, NaN, 0.04577916, "- N/A -   "
0.38, 22.29207, 7.302857E-4, NaN, NaN, NaN, 0.0445584, "- N/A -   "
0.39, 22.528, 7.49723E-4, NaN, NaN, NaN, 0.0433376, "- N/A -   "
0.4, 22.7639, 7.691603E-4, NaN, NaN, NaN, 0.04211683, "- N/A -   "
0.45, 23.82539, 8.552396E-4, NaN, NaN, NaN, 0.0396753, "- N/A -   "
0.5, 24.8869, 0.000941319, NaN, NaN, NaN, 0.0384545, "- N/A -   "
0.55, 25.9484, 0.00103851, NaN, NaN, NaN, 0.0323506, "- N/A -   "
0.6, 27.1279, 0.00112458, NaN, NaN, NaN, 0.03112983, "- N/A -   "
0.65, 28.0715, 0.00120789, NaN, NaN, NaN, 0.03112983, "- N/A -   "
0.7, 28.89713, 0.00128841, NaN, NaN, NaN, 0.0323506, "- N/A -   "
0.75, 29.84071, 0.00136339, NaN, NaN, NaN, 0.03601294, "- N/A -   "
0.8, 30.6663, 0.0014328, NaN, NaN, NaN, 0.04211683, "- N/A -   "
0.85, 31.492, 0.001510553, NaN, NaN, NaN, 0.04577916, "- N/A -   "
0.9, 32.67145, 0.001599409, NaN, NaN, NaN, 0.04211683, "- N/A -   "
0.95, 33.61503, 0.00168271, NaN, NaN, NaN, 0.04211683, "- N/A -   "
1, 34.6766, 0.00177157, NaN, NaN, NaN, 0.0396753, "- N/A -   "
1.05, 35.6201, 0.00186042, NaN, NaN, NaN, 0.0384545, "- N/A -   "
1.1, 36.79961, 0.00195483, NaN, NaN, NaN, 0.0323506, "- N/A -   "
1.15, 37.9791, 0.002046466, NaN, NaN, NaN, 0.0286883, "- N/A -   "
1.2, 38.8047, 0.00212977, NaN, NaN, NaN, 0.0286883, "- N/A -   "
1.25, 39.7483, 0.00221029, NaN, NaN, NaN, 0.03112983, "- N/A -   "
1.3, 40.69188, 0.00228804, NaN, NaN, NaN, 0.0323506, "- N/A -   "
1.35, 41.6355, 0.00236857, NaN, NaN, NaN, 0.0335714, "- N/A -   "
1.4, 42.579, 0.00244632, NaN, NaN, NaN, 0.03601294, "- N/A -   "
1.45, 43.5226, 0.0025324, NaN, NaN, NaN, 0.03601294, "- N/A -   "
1.5, 44.34825, 0.00260182, NaN, NaN, NaN, 0.04089605, "- N/A -   "
1.55, 45.29183, 0.00267957, NaN, NaN, NaN, 0.0445584, "- N/A -   "
1.6, 46.23541, 0.00276009, NaN, NaN, NaN, 0.0445584, "- N/A -   "
1.65, 47.4149, 0.00284617, NaN, NaN, NaN, 0.0445584, "- N/A -   "
1.7, 48.59436, 0.002943357, NaN, NaN, NaN, 0.0384545, "- N/A -   "
1.75, 49.7738, 0.00303499, NaN, NaN, NaN, 0.0347922, "- N/A -   "
1.8, 50.9533, 0.003121069, NaN, NaN, NaN, 0.0323506, "- N/A -   "
1.85, 51.7789, 0.003201595, NaN, NaN, NaN, 0.0347922, "- N/A -   "
1.9, 52.84047, 0.00327657, NaN, NaN, NaN, 0.0384545, "- N/A -   "
1.95, 53.902, 0.003357093, NaN, NaN, NaN, 0.0384545, "- N/A -   "
2, 55.0815, 0.00344873, NaN, NaN, NaN, 0.0347922, "- N/A -   "
2.05, 56.2609, 0.00353758, NaN, NaN, NaN, 0.0335714, "- N/A -   "
2.1, 57.32247, 0.00361811, NaN, NaN, NaN, 0.0335714, "- N/A -   "
2.15, 58.384, 0.00369586, NaN, NaN, NaN, 0.0372337, "- N/A -   "
2.2, 59.3276, 0.00376528, NaN, NaN, NaN, 0.04211683, "- N/A -   "
2.25, 60.5071, 0.00385135, NaN, NaN, NaN, 0.04089605, "- N/A -   "
2.3, 61.56858, 0.003937434, NaN, NaN, NaN, 0.0396753, "- N/A -   "
2.35, 62.98395, 0.00402907, NaN, NaN, NaN, 0.03601294, "- N/A -   "
2.4, 64.04548, 0.004115146, NaN, NaN, NaN, 0.0347922, "- N/A -   "
2.45, 65.107, 0.00419845, NaN, NaN, NaN, 0.0347922, "- N/A -   "
2.5, 66.2865, 0.00428175, NaN, NaN, NaN, 0.0347922, "- N/A -   "
2.55, 67.5839, 0.004373384, NaN, NaN, NaN, 0.03112983, "- N/A -   "
2.6, 68.6454, 0.00445946, NaN, NaN, NaN, 0.03112983, "- N/A -   "
2.65, 69.707, 0.00453721, NaN, NaN, NaN, 0.0335714, "- N/A -   "
2.7, 70.7685, 0.00461774, NaN, NaN, NaN, 0.0335714, "- N/A -   "
2.75, 71.83001, 0.00470382, NaN, NaN, NaN, 0.0335714, "- N/A -   "
2.8, 73.00948, 0.00478712, NaN, NaN, NaN, 0.0335714, "- N/A -   "
2.85, 74.071, 0.004862093, NaN, NaN, NaN, 0.03601294, "- N/A -   "
2.9, 75.0146, 0.004937065, NaN, NaN, NaN, 0.0396753, "- N/A -   "
2.95, 76.19407, 0.005017591, NaN, NaN, NaN, 0.04089605, "- N/A -   "
3, 77.37354, 0.005098117, NaN, NaN, NaN, 0.0433376, "- N/A -   "
3.05, 78.4351, 0.00517864, NaN, NaN, NaN, 0.0433376, "- N/A -   "
3.1, 79.61454, 0.0052675, NaN, NaN, NaN, 0.04089605, "- N/A -   "
3.15, 81.14786, 0.00536191, NaN, NaN, NaN, 0.03601294, "- N/A -   "
3.2, 82.20939, 0.00544799, NaN, NaN, NaN, 0.0347922, "- N/A -   "
3.25, 83.27091, 0.00552851, NaN, NaN, NaN, 0.0372337, "- N/A -   "
3.3, 84.45039, 0.005609039, NaN, NaN, NaN, 0.0372337, "- N/A -   "
3.35, 85.74781, 0.0056979, NaN, NaN, NaN, 0.0347922, "- N/A -   "
3.4, 87.04523, 0.00579508, NaN, NaN, NaN, 0.0299091, "- N/A -   "
3.45, 88.10676, 0.00587561, NaN, NaN, NaN, 0.0299091, "- N/A -   "
3.5, 89.28623, 0.00595336, NaN, NaN, NaN, 0.0323506, "- N/A -   "
3.55, 90.11186, 0.006022774, NaN, NaN, NaN, 0.0384545, "- N/A -   "
3.6, 91.05545, 0.00609219, NaN, NaN, NaN, 0.0445584, "- N/A -   "
3.65, 92.35287, 0.00617272, NaN, NaN, NaN, 0.04699994, "- N/A -   "
3.7, 93.65029, 0.00626435, NaN, NaN, NaN, 0.0433376, "- N/A -   "
3.75, 94.9477, 0.00635598, NaN, NaN, NaN, 0.0396753, "- N/A -   "
[...]
27.08, 946.053, 0.0452583, NaN, NaN, NaN, 0.03112983, "- N/A -   "
27.29, 955.279, 0.0456081, NaN, NaN, NaN, 0.03112983, "- N/A -   "
27.5, 963.559, 0.0459247, NaN, NaN, NaN, 0.04577916, "- N/A -   "
27.71, 973.6124, 0.0463023, NaN, NaN, NaN, 0.0335714, "- N/A -   "
27.92, 982.957, 0.04665776, NaN, NaN, NaN, 0.03112983, "- N/A -   "
28.13, 991.3546, 0.0469799, NaN, NaN, NaN, 0.0433376, "- N/A -   "
28.34, 1000.82, 0.04734084, NaN, NaN, NaN, 0.0396753, "- N/A -   "
28.55, 1010.63, 0.0477129, NaN, NaN, NaN, 0.0286883, "- N/A -   "
28.76, 1019.56, 0.0480489, NaN, NaN, NaN, 0.0347922, "- N/A -   "
28.97, 1028.5, 0.0483821, NaN, NaN, NaN, 0.0433376, "- N/A -   "
29.18, 1038.16, 0.0487431, NaN, NaN, NaN, 0.0372337, "- N/A -   "
29.39, 1047.7, 0.0490985, NaN, NaN, NaN, 0.0347922, "- N/A -   "
29.6, 1056.65, 0.04943729, NaN, NaN, NaN, 0.0396753, "- N/A -   "
29.81, 1066.54, 0.049801, NaN, NaN, NaN, 0.0335714, "- N/A -   "
30.02, 1076.08, 0.05015647, NaN, NaN, NaN, 0.0323506, "- N/A -   "
30.23, 1085.15, 0.050498, NaN, NaN, NaN, 0.0347922, "- N/A -   "
30.44, 1094.81, 0.05085066, NaN, NaN, NaN, 0.0335714, "- N/A -   "
30.65, 1104.11, 0.0512005, NaN, NaN, NaN, 0.0335714, "- N/A -   "
30.86, 1113.05, 0.0515365, NaN, NaN, NaN, 0.04211683, "- N/A -   "
31.07, 1122.831, 0.0518947, NaN, NaN, NaN, 0.0372337, "- N/A -   "
31.28, 1132.97, 0.0522668, NaN, NaN, NaN, 0.0274675, "- N/A -   "
31.49, 1141.43, 0.0525833, NaN, NaN, NaN, 0.04211683, "- N/A -   "
31.7, 1150.74, 0.05292767, NaN, NaN, NaN, 0.0445584, "- N/A -   "
31.91, 1161.111, 0.0533109, NaN, NaN, NaN, 0.03112983, "- N/A -   "
32.12, 1170.05, 0.0536385, NaN, NaN, NaN, 0.04089605, "- N/A -   "
32.33, 1179.36, 0.0539801, NaN, NaN, NaN, 0.0445584, "- N/A -   "
32.54, 1189.61, 0.0543577, NaN, NaN, NaN, 0.03112983, "- N/A -   "
32.75, 1199.27, 0.0547076, NaN, NaN, NaN, 0.03112983, "- N/A -   "
32.96, 1207.977, 0.055038, NaN, NaN, NaN, 0.0396753, "- N/A -   "
33.17, 1217.76, 0.05539342, NaN, NaN, NaN, 0.0372337, "- N/A -   "
33.38, 1227.415, 0.0557488, NaN, NaN, NaN, 0.03601294, "- N/A -   "
33.59, 1236.6, 0.05609039, NaN, NaN, NaN, 0.0384545, "- N/A -   "
33.8, 1246.26, 0.05643748, NaN, NaN, NaN, 0.0396753, "- N/A -   "
34.01, 1256.15, 0.0568068, NaN, NaN, NaN, 0.03112983, "- N/A -   "
34.22, 1265.34, 0.0571483, NaN, NaN, NaN, 0.03601294, "- N/A -   "
34.43, 1274.4, 0.0574788, NaN, NaN, NaN, 0.0433376, "- N/A -   "
34.64, 1284.78, 0.0578592, NaN, NaN, NaN, 0.03112983, "- N/A -   "
34.85, 1293.84, 0.05819794, NaN, NaN, NaN, 0.0347922, "- N/A -   "
35.06, 1302.42, 0.05852282, NaN, NaN, NaN, 0.04577916, "- N/A -   "
35.27, 1313.28, 0.0589143, NaN, NaN, NaN, 0.0274675, "- N/A -   "
35.48, 1322.46, 0.0592531, NaN, NaN, NaN, 0.0335714, "- N/A -   "
35.69, 1331.04, 0.05957521, NaN, NaN, NaN, 0.04577916, "- N/A -   "
35.9, 1341.54, 0.0599528, NaN, NaN, NaN, 0.0335714, "- N/A -   "
36.11, 1350.72, 0.0602972, NaN, NaN, NaN, 0.03601294, "- N/A -   "
36.32, 1359.78, 0.0606304, NaN, NaN, NaN, 0.0433376, "- N/A -   "
36.53, 1369.68, 0.0609886, NaN, NaN, NaN, 0.0396753, "- N/A -   "
36.74, 1379.46, 0.06135233, NaN, NaN, NaN, 0.0347922, "- N/A -   "
36.95, 1389.12, 0.06170498, NaN, NaN, NaN, 0.0323506, "- N/A -   "
37.16, 1397.826, 0.06202708, NaN, NaN, NaN, 0.0445584, "- N/A -   "
37.37, 1408.08, 0.0624019, NaN, NaN, NaN, 0.0335714, "- N/A -   "
37.58, 1417.622, 0.0627546, NaN, NaN, NaN, 0.0323506, "- N/A -   "
37.79, 1426.45, 0.0630767, NaN, NaN, NaN, 0.04577916, "- N/A -   "
38, 1436.7, 0.06345433, NaN, NaN, NaN, 0.0323506, "- N/A -   "
38.21, 1446.36, 0.06380975, NaN, NaN, NaN, 0.0299091, "- N/A -   "
38.394, 1453.76, 0.06408188, NaN, NaN, NaN, 0.04577916, "- N/A -   "