Folder: DigitalTwins-Machine-Learning/2_Tensile_Data (part 26)

File: Hamel_ForceTest_Bolt7_Test6.csv
Time, Load (lb), Position (in), AxialStrain (in), TransverseStrain (in), Auxiliary (), Control Out (V), Stress (psi)
0.0, 7.90248, 0.0, NaN, NaN, NaN, -0.007935055, "- N/A -   "
0.01, 7.90248, 0.0, NaN, NaN, NaN, -6.103888E-4, "- N/A -   "
0.02, 7.90248, 0.0, NaN, NaN, NaN, 0.006714277, "- N/A -   "
0.03, 7.90248, 0.0, NaN, NaN, NaN, 0.0213636, "- N/A -   "
0.04, 8.020428, 5.553504E-6, NaN, NaN, NaN, 0.0384545, "- N/A -   "
0.05, 8.138375, 1.38838e-05, NaN, NaN, NaN, 0.0543246, "- N/A -   "
0.06, 8.37427, 2.77675e-05, NaN, NaN, NaN, 0.0689739, "- N/A -   "
0.07, 8.728113, 4.442803E-5, NaN, NaN, NaN, 0.0799609, "- N/A -   "
0.08, 9.081955, 6.94188E-5, NaN, NaN, NaN, 0.0897272, "- N/A -   "
0.09, 9.671693, 9.440956E-5, NaN, NaN, NaN, 0.09705182, "- N/A -   "
0.1, 10.1435, 0.000124954, NaN, NaN, NaN, 0.103156, "- N/A -   "
0.11, 10.73322, 1.554981E-4, NaN, NaN, NaN, 0.09705182, "- N/A -   "
0.12, 11.323, 0.000186042, NaN, NaN, NaN, 0.09094793, "- N/A -   "
0.13, 11.7947, 0.000211033, NaN, NaN, NaN, 0.0872856, "- N/A -   "
0.14, 12.2665, 2.360239E-4, NaN, NaN, NaN, 0.08362327, "- N/A -   "
0.15, 12.6204, 0.000261015, NaN, NaN, NaN, 0.0799609, "- N/A -   "
0.16, 12.9742, 0.000286005, NaN, NaN, NaN, 0.07751938, "- N/A -   "
0.17, 13.446, 0.000308219, NaN, NaN, NaN, 0.0750778, "- N/A -   "
0.18, 13.7999, 0.000330433, NaN, NaN, NaN, 0.07263627, "- N/A -   "
0.19, 14.1537, 0.000352647, NaN, NaN, NaN, 0.0701947, "- N/A -   "
0.2, 14.5075, 0.000372085, NaN, NaN, NaN, 0.06775316, "- N/A -   "
0.21, 14.9793, 0.000391522, NaN, NaN, NaN, 0.06653238, "- N/A -   "
0.22, 15.3332, 4.13736E-4, NaN, NaN, NaN, 0.0640908, "- N/A -   "
0.23, 15.687, 0.00043595, NaN, NaN, NaN, 0.06287005, "- N/A -   "
0.24, 16.0409, 4.553873E-4, NaN, NaN, NaN, 0.0604285, "- N/A -   "
0.25, 16.3947, 4.776013E-4, NaN, NaN, NaN, 0.0592077, "- N/A -   "
0.26, 16.86649, 0.000499815, NaN, NaN, NaN, 0.05676616, "- N/A -   "
0.27, 17.2203, 0.000522029, NaN, NaN, NaN, 0.0543246, "- N/A -   "
0.28, 17.5742, 5.414666E-4, NaN, NaN, NaN, 0.05188305, "- N/A -   "
0.29, 17.928, 5.636806E-4, NaN, NaN, NaN, 0.0494415, "- N/A -   "
0.3, 18.3998, 5.858946E-4, NaN, NaN, NaN, 0.04699994, "- N/A -   "
0.31, 18.6357, 6.053319E-4, NaN, NaN, NaN, 0.04577916, "- N/A -   "
0.32, 19.1075, 0.000624769, NaN, NaN, NaN, 0.0445584, "- N/A -   "
0.33, 19.3434, 0.000646983, NaN, NaN, NaN, 0.0433376, "- N/A -   "
0.34, 19.6972, 6.636437E-4, NaN, NaN, NaN, 0.04211683, "- N/A -   "
0.35, 20.05107, 6.830809E-4, NaN, NaN, NaN, 0.04211683, "- N/A -   "
0.36, 20.4049, 6.997415E-4, NaN, NaN, NaN, 0.04089605, "- N/A -   "
0.37, 20.6408, 7.191787E-4, NaN, NaN, NaN, 0.04089605, "- N/A -   "
0.38, 20.8767, 0.000735839, NaN, NaN, NaN, 0.0396753, "- N/A -   "
0.39, 21.2305, 0.0007525, NaN, NaN, NaN, 0.0396753, "- N/A -   "
0.4, 21.5844, 7.691603E-4, NaN, NaN, NaN, 0.0396753, "- N/A -   "
0.41, 21.93823, 0.000785821, NaN, NaN, NaN, 0.0396753, "- N/A -   "
0.42, 22.0562, 0.000802481, NaN, NaN, NaN, 0.0396753, "- N/A -   "
0.43, 22.528, 8.191418E-4, NaN, NaN, NaN, 0.0396753, "- N/A -   "
0.44, 22.7639, 8.358023E-4, NaN, NaN, NaN, 0.0396753, "- N/A -   "
0.5, 24.4151, 9.329886E-4, NaN, NaN, NaN, 0.04089605, "- N/A -   "
0.56, 26.4202, 0.001041282, NaN, NaN, NaN, 0.0372337, "- N/A -   "
0.62, 28.42534, 0.00115513, NaN, NaN, NaN, 0.03112983, "- N/A -   "
0.68, 30.3125, 0.00125232, NaN, NaN, NaN, 0.0323506, "- N/A -   "
0.74, 31.9638, 0.00134117, NaN, NaN, NaN, 0.0372337, "- N/A -   "
0.8, 33.73298, 0.00142725, NaN, NaN, NaN, 0.0433376, "- N/A -   "
0.86, 35.50219, 0.00151611, NaN, NaN, NaN, 0.0482207, "- N/A -   "
0.92, 37.8611, 0.00163273, NaN, NaN, NaN, 0.04089605, "- N/A -   "
0.98, 40.33803, 0.00174935, NaN, NaN, NaN, 0.0335714, "- N/A -   "
1.04, 42.3431, 0.00184654, NaN, NaN, NaN, 0.03601294, "- N/A -   "
1.1, 44.4662, 0.0019465, NaN, NaN, NaN, 0.0347922, "- N/A -   "
1.16, 46.9431, 0.00206313, NaN, NaN, NaN, 0.0286883, "- N/A -   "
1.22, 49.1841, 0.00216309, NaN, NaN, NaN, 0.0286883, "- N/A -   "
1.28, 51.1892, 0.00225472, NaN, NaN, NaN, 0.03112983, "- N/A -   "
1.34, 53.0764, 0.0023408, NaN, NaN, NaN, 0.0372337, "- N/A -   "
1.4, 55.0815, 0.00242966, NaN, NaN, NaN, 0.04211683, "- N/A -   "
1.46, 57.20452, 0.00252407, NaN, NaN, NaN, 0.0445584, "- N/A -   "
1.52, 59.4455, 0.00262681, NaN, NaN, NaN, 0.0433376, "- N/A -   "
1.58, 61.6865, 0.00272399, NaN, NaN, NaN, 0.0445584, "- N/A -   "
1.64, 64.28137, 0.00283506, NaN, NaN, NaN, 0.0396753, "- N/A -   "
1.7, 66.99416, 0.002951687, NaN, NaN, NaN, 0.0323506, "- N/A -   "
1.76, 69.35311, 0.003057204, NaN, NaN, NaN, 0.0299091, "- N/A -   "
1.82, 71.71206, 0.00315994, NaN, NaN, NaN, 0.0286883, "- N/A -   "
1.88, 73.71717, 0.0032488, NaN, NaN, NaN, 0.0335714, "- N/A -   "
1.94, 75.95817, 0.00334321, NaN, NaN, NaN, 0.0372337, "- N/A -   "
2, 78.4351, 0.00344317, NaN, NaN, NaN, 0.03601294, "- N/A -   "
2.06, 80.794, 0.00354314, NaN, NaN, NaN, 0.03601294, "- N/A -   "
2.12, 82.68118, 0.00363199, NaN, NaN, NaN, 0.04211683, "- N/A -   "
2.18, 84.92217, 0.00372362, NaN, NaN, NaN, 0.0445584, "- N/A -   "
2.24, 87.39908, 0.00382636, NaN, NaN, NaN, 0.0445584, "- N/A -   "
2.3, 90.22981, 0.00394299, NaN, NaN, NaN, 0.03601294, "- N/A -   "
2.36, 92.94261, 0.00405683, NaN, NaN, NaN, 0.0299091, "- N/A -   "
2.42, 95.18361, 0.0041568, NaN, NaN, NaN, 0.0299091, "- N/A -   "
2.48, 97.30666, 0.00424843, NaN, NaN, NaN, 0.0347922, "- N/A -   "
2.54, 99.66561, 0.004345617, NaN, NaN, NaN, 0.0347922, "- N/A -   "
2.6, 102.26, 0.004451133, NaN, NaN, NaN, 0.0323506, "- N/A -   "
2.66, 104.619, 0.004553873, NaN, NaN, NaN, 0.03112983, "- N/A -   "
2.72, 106.742, 0.004642729, NaN, NaN, NaN, 0.03601294, "- N/A -   "
2.78, 108.866, 0.00473159, NaN, NaN, NaN, 0.04089605, "- N/A -   "
2.84, 110.989, 0.004825995, NaN, NaN, NaN, 0.0433376, "- N/A -   "
2.9, 113.465, 0.004928735, NaN, NaN, NaN, 0.04211683, "- N/A -   "
2.96, 115.942, 0.005034251, NaN, NaN, NaN, 0.0396753, "- N/A -   "
3.02, 118.655, 0.00514254, NaN, NaN, NaN, 0.03601294, "- N/A -   "
3.08, 121.014, 0.005245284, NaN, NaN, NaN, 0.0347922, "- N/A -   "
3.14, 123.491, 0.005350801, NaN, NaN, NaN, 0.0323506, "- N/A -   "
3.2, 125.9679, 0.00545632, NaN, NaN, NaN, 0.0299091, "- N/A -   "
3.26, 127.973, 0.00554795, NaN, NaN, NaN, 0.0347922, "- N/A -   "
3.32, 130.332, 0.00564514, NaN, NaN, NaN, 0.0347922, "- N/A -   "
3.38, 132.455, 0.0057451, NaN, NaN, NaN, 0.0347922, "- N/A -   "
3.44, 134.932, 0.00584784, NaN, NaN, NaN, 0.0335714, "- N/A -   "
3.5, 136.937, 0.005933919, NaN, NaN, NaN, 0.0396753, "- N/A -   "
3.56, 139.06, 0.006033882, NaN, NaN, NaN, 0.04089605, "- N/A -   "
3.62, 141.419, 0.00612829, NaN, NaN, NaN, 0.0433376, "- N/A -   "
3.68, 143.66, 0.006231031, NaN, NaN, NaN, 0.04211683, "- N/A -   "
3.74, 146.3728, 0.006344878, NaN, NaN, NaN, 0.03601294, "- N/A -   "
3.8, 148.732, 0.00645317, NaN, NaN, NaN, 0.0335714, "- N/A -   "
3.86, 150.737, 0.006547581, NaN, NaN, NaN, 0.0347922, "- N/A -   "
3.92, 153.096, 0.006650321, NaN, NaN, NaN, 0.0335714, "- N/A -   "
3.98, 155.573, 0.006761391, NaN, NaN, NaN, 0.0286883, "- N/A -   "
4.04, 157.578, 0.00685858, NaN, NaN, NaN, 0.0299091, "- N/A -   "
4.1, 159.465, 0.00694466, NaN, NaN, NaN, 0.03601294, "- N/A -   "
4.16, 161.116, 0.00702796, NaN, NaN, NaN, 0.0433376, "- N/A -   "
4.22, 163.0034, 0.00711682, NaN, NaN, NaN, 0.0482207, "- N/A -   "
[...]
34.68, 1463.057, 0.05793137, NaN, NaN, NaN, 0.0262467, "- N/A -   "
34.75, 1466.16, 0.0580424, NaN, NaN, NaN, 0.0286883, "- N/A -   "
34.82, 1468.66, 0.0581452, NaN, NaN, NaN, 0.0347922, "- N/A -   "
34.89, 1471.166, 0.05824237, NaN, NaN, NaN, 0.0433376, "- N/A -   "
34.96, 1474.03, 0.05834789, NaN, NaN, NaN, 0.0482207, "- N/A -   "
35.03, 1477.72, 0.0584784, NaN, NaN, NaN, 0.04211683, "- N/A -   "
35.1, 1481.42, 0.0586117, NaN, NaN, NaN, 0.0347922, "- N/A -   "
35.17, 1484.64, 0.0587311, NaN, NaN, NaN, 0.0335714, "- N/A -   "
35.24, 1487.98, 0.0588533, NaN, NaN, NaN, 0.03112983, "- N/A -   "
35.31, 1491.2, 0.0589754, NaN, NaN, NaN, 0.03112983, "- N/A -   "
35.38, 1494.42, 0.0590921, NaN, NaN, NaN, 0.0299091, "- N/A -   "
35.45, 1497.04, 0.0591948, NaN, NaN, NaN, 0.0372337, "- N/A -   "
35.52, 1499.79, 0.05929753, NaN, NaN, NaN, 0.04211683, "- N/A -   "
35.59, 1502.77, 0.0594114, NaN, NaN, NaN, 0.0433376, "- N/A -   "
35.66, 1505.749, 0.0595225, NaN, NaN, NaN, 0.04699994, "- N/A -   "
35.73, 1509.09, 0.05964463, NaN, NaN, NaN, 0.0433376, "- N/A -   "
35.8, 1512.785, 0.0597835, NaN, NaN, NaN, 0.0347922, "- N/A -   "
35.87, 1516.36, 0.0599112, NaN, NaN, NaN, 0.0286883, "- N/A -   "
35.94, 1519.22, 0.06002227, NaN, NaN, NaN, 0.03112983, "- N/A -   "
36.01, 1522.09, 0.0601306, NaN, NaN, NaN, 0.0347922, "- N/A -   "
36.08, 1525.19, 0.0602444, NaN, NaN, NaN, 0.03601294, "- N/A -   "
36.15, 1528.29, 0.0603638, NaN, NaN, NaN, 0.03601294, "- N/A -   "
36.22, 1531.15, 0.0604693, NaN, NaN, NaN, 0.0396753, "- N/A -   "
36.29, 1533.77, 0.0605721, NaN, NaN, NaN, 0.04577916, "- N/A -   "
36.36, 1536.99, 0.0606915, NaN, NaN, NaN, 0.04577916, "- N/A -   "
36.43, 1540.81, 0.0608331, NaN, NaN, NaN, 0.0347922, "- N/A -   "
36.5, 1544.15, 0.0609553, NaN, NaN, NaN, 0.03112983, "- N/A -   "
36.57, 1547.13, 0.0610663, NaN, NaN, NaN, 0.0347922, "- N/A -   "
36.64, 1549.99, 0.06117462, NaN, NaN, NaN, 0.0372337, "- N/A -   "
36.71, 1553.45, 0.0612996, NaN, NaN, NaN, 0.0335714, "- N/A -   "
36.78, 1556.43, 0.0614162, NaN, NaN, NaN, 0.0347922, "- N/A -   "
36.85, 1559.29, 0.06152449, NaN, NaN, NaN, 0.0372337, "- N/A -   "
36.92, 1562.16, 0.0616328, NaN, NaN, NaN, 0.04211683, "- N/A -   "
36.99, 1565.38, 0.06175496, NaN, NaN, NaN, 0.0384545, "- N/A -   "
37.06, 1568.48, 0.06186603, NaN, NaN, NaN, 0.04089605, "- N/A -   "
37.13, 1571.7, 0.06198821, NaN, NaN, NaN, 0.0384545, "- N/A -   "
37.2, 1574.92, 0.0621132, NaN, NaN, NaN, 0.03601294, "- N/A -   "
37.27, 1578.02, 0.06222701, NaN, NaN, NaN, 0.03601294, "- N/A -   "
37.34, 1581.24, 0.06234641, NaN, NaN, NaN, 0.0347922, "- N/A -   "
37.41, 1584.22, 0.06246303, NaN, NaN, NaN, 0.0347922, "- N/A -   "
37.48, 1587.44, 0.0625852, NaN, NaN, NaN, 0.0335714, "- N/A -   "
37.55, 1590.42, 0.06269906, NaN, NaN, NaN, 0.0335714, "- N/A -   "
37.62, 1593.16, 0.06280179, NaN, NaN, NaN, 0.0396753, "- N/A -   "
37.69, 1596.02, 0.06291287, NaN, NaN, NaN, 0.04211683, "- N/A -   "
37.76, 1599.12, 0.06302672, NaN, NaN, NaN, 0.0445584, "- N/A -   "
37.83, 1602.58, 0.0631544, NaN, NaN, NaN, 0.0384545, "- N/A -   "
37.9, 1605.92, 0.06328218, NaN, NaN, NaN, 0.0335714, "- N/A -   "
37.97, 1609.14, 0.06340158, NaN, NaN, NaN, 0.0323506, "- N/A -   "
38.04, 1612.24, 0.0635182, NaN, NaN, NaN, 0.0323506, "- N/A -   "
38.11, 1615.58, 0.06364315, NaN, NaN, NaN, 0.0286883, "- N/A -   "
38.18, 1618.44, 0.06375422, NaN, NaN, NaN, 0.03112983, "- N/A -   "
38.25, 1621.07, 0.06385974, NaN, NaN, NaN, 0.03601294, "- N/A -   "
38.32, 1623.69, 0.0639597, NaN, NaN, NaN, 0.0433376, "- N/A -   "
38.388, 1626.43, 0.064068, NaN, NaN, NaN, 0.04577916, "- N/A -   "

File: Hamel_ForceTest_Bolt7_Test7.csv
Time, Load (lb), Position (in), AxialStrain (in), TransverseStrain (in), Auxiliary (), Control Out (V), Stress (psi)
0.0, 6.723006, 0.0, NaN, NaN, NaN, -0.006714277, "- N/A -   "
0.01, 6.60506, 0.0, NaN, NaN, NaN, 6.103888E-4, "- N/A -   "
0.02, 6.723006, 2.776752E-6, NaN, NaN, NaN, 0.006714277, "- N/A -   "
0.03, 6.60506, 2.776752E-6, NaN, NaN, NaN, 0.0140389, "- N/A -   "
0.04, 6.723006, 5.553504E-6, NaN, NaN, NaN, 0.03112983, "- N/A -   "
0.05, 6.84095, 1.1107e-05, NaN, NaN, NaN, 0.0482207, "- N/A -   "
0.06, 6.9589, 2.2214e-05, NaN, NaN, NaN, 0.06287005, "- N/A -   "
0.07, 7.312743, 3.88745e-05, NaN, NaN, NaN, 0.0750778, "- N/A -   "
0.08, 7.666586, 5.83118e-05, NaN, NaN, NaN, 0.08606482, "- N/A -   "
0.09, 8.256323, 8.05258E-5, NaN, NaN, NaN, 0.095831, "- N/A -   "
0.1, 8.846061, 0.00011107, NaN, NaN, NaN, 0.101935, "- N/A -   "
0.11, 9.435798, 0.000144391, NaN, NaN, NaN, 0.101935, "- N/A -   "
0.12, 10.0255, 0.000172159, NaN, NaN, NaN, 0.095831, "- N/A -   "
0.13, 10.4973, 0.000197149, NaN, NaN, NaN, 0.09216871, "- N/A -   "
0.14, 10.9691, 0.00022214, NaN, NaN, NaN, 0.0897272, "- N/A -   "
0.15, 11.5589, 0.000244354, NaN, NaN, NaN, 0.08606482, "- N/A -   "
0.16, 12.0306, 0.000269345, NaN, NaN, NaN, 0.08240249, "- N/A -   "
0.17, 12.5024, 0.000291559, NaN, NaN, NaN, 0.0799609, "- N/A -   "
0.18, 12.9742, 0.000319326, NaN, NaN, NaN, 0.0762986, "- N/A -   "
0.19, 13.446, 0.000338764, NaN, NaN, NaN, 0.07385705, "- N/A -   "
0.2, 13.9178, 0.000360978, NaN, NaN, NaN, 0.07141549, "- N/A -   "
0.21, 14.2716, 0.000383192, NaN, NaN, NaN, 0.0701947, "- N/A -   "
0.22, 14.6255, 0.000402629, NaN, NaN, NaN, 0.06775316, "- N/A -   "
0.23, 14.9793, 0.000424843, NaN, NaN, NaN, 0.0653116, "- N/A -   "
0.24, 15.5691, 4.442803E-4, NaN, NaN, NaN, 0.0640908, "- N/A -   "
0.25, 15.805, 4.664943E-4, NaN, NaN, NaN, 0.06287005, "- N/A -   "
0.26, 16.27675, 4.831548E-4, NaN, NaN, NaN, 0.06164927, "- N/A -   "
0.27, 16.6306, 0.000502592, NaN, NaN, NaN, 0.0604285, "- N/A -   "
0.28, 17.1024, 0.000527583, NaN, NaN, NaN, 0.0579869, "- N/A -   "
0.29, 17.5742, 5.470201E-4, NaN, NaN, NaN, 0.0555454, "- N/A -   "
0.3, 18.046, 0.000569234, NaN, NaN, NaN, 0.0531038, "- N/A -   "
0.31, 18.3998, 0.000591448, NaN, NaN, NaN, 0.05188305, "- N/A -   "
0.32, 18.8716, 6.108854E-4, NaN, NaN, NaN, 0.0494415, "- N/A -   "
0.33, 19.2254, 6.330994E-4, NaN, NaN, NaN, 0.04699994, "- N/A -   "
0.34, 19.8152, 0.000655313, NaN, NaN, NaN, 0.04577916, "- N/A -   "
0.35, 20.169, 6.747507E-4, NaN, NaN, NaN, 0.0433376, "- N/A -   "
0.36, 20.6408, 6.969647E-4, NaN, NaN, NaN, 0.04211683, "- N/A -   "
0.37, 21.1126, 0.000716402, NaN, NaN, NaN, 0.04089605, "- N/A -   "
0.38, 21.3485, 0.000733062, NaN, NaN, NaN, 0.0396753, "- N/A -   "
0.39, 21.8203, 0.0007525, NaN, NaN, NaN, 0.0396753, "- N/A -   "
0.4, 22.0562, 7.691603E-4, NaN, NaN, NaN, 0.0384545, "- N/A -   "
0.41, 22.29207, 0.000785821, NaN, NaN, NaN, 0.0384545, "- N/A -   "
0.42, 22.7639, 0.000802481, NaN, NaN, NaN, 0.0384545, "- N/A -   "
0.43, 22.9998, 8.191418E-4, NaN, NaN, NaN, 0.0396753, "- N/A -   "
0.44, 23.3536, 8.358023E-4, NaN, NaN, NaN, 0.0396753, "- N/A -   "
0.45, 23.7074, 8.524628E-4, NaN, NaN, NaN, 0.0384545, "- N/A -   "
0.46, 24.0613, 0.0008719, NaN, NaN, NaN, 0.0372337, "- N/A -   "
0.47, 24.4151, 0.000891337, NaN, NaN, NaN, 0.0372337, "- N/A -   "
0.48, 24.8869, 9.107746E-4, NaN, NaN, NaN, 0.03601294, "- N/A -   "
0.49, 25.2408, 9.274351E-4, NaN, NaN, NaN, 0.0347922, "- N/A -   "
0.5, 25.7125, 9.440956E-4, NaN, NaN, NaN, 0.0347922, "- N/A -   "
0.51, 25.9484, 0.000960756, NaN, NaN, NaN, 0.0347922, "- N/A -   "
0.56, 27.7177, 0.00105239, NaN, NaN, NaN, 0.0323506, "- N/A -   "
0.61, 29.4869, 0.00113847, NaN, NaN, NaN, 0.03112983, "- N/A -   "
0.66, 31.1381, 0.00121622, NaN, NaN, NaN, 0.0335714, "- N/A -   "
0.71, 32.7894, 0.00129119, NaN, NaN, NaN, 0.0372337, "- N/A -   "
0.76, 34.08682, 0.00135783, NaN, NaN, NaN, 0.0433376, "- N/A -   "
0.81, 35.6201, 0.00143558, NaN, NaN, NaN, 0.04577916, "- N/A -   "
0.86, 37.3893, 0.00151888, NaN, NaN, NaN, 0.04577916, "- N/A -   "
0.91, 39.2765, 0.00161052, NaN, NaN, NaN, 0.04211683, "- N/A -   "
0.96, 41.2816, 0.00170215, NaN, NaN, NaN, 0.0384545, "- N/A -   "
1.01, 43.1688, 0.00179656, NaN, NaN, NaN, 0.0347922, "- N/A -   "
1.06, 44.93799, 0.001879861, NaN, NaN, NaN, 0.0335714, "- N/A -   "
1.11, 46.9431, 0.00197149, NaN, NaN, NaN, 0.03112983, "- N/A -   "
1.16, 48.7123, 0.00206035, NaN, NaN, NaN, 0.0274675, "- N/A -   "
1.21, 50.3636, 0.00214088, NaN, NaN, NaN, 0.0286883, "- N/A -   "
1.26, 52.1328, 0.00221862, NaN, NaN, NaN, 0.03112983, "- N/A -   "
1.31, 53.6661, 0.002293597, NaN, NaN, NaN, 0.0347922, "- N/A -   "
1.36, 55.3174, 0.00236857, NaN, NaN, NaN, 0.0384545, "- N/A -   "
1.41, 56.85068, 0.00244076, NaN, NaN, NaN, 0.0433376, "- N/A -   "
1.46, 58.6199, 0.00252129, NaN, NaN, NaN, 0.04577916, "- N/A -   "
1.51, 60.3891, 0.00260182, NaN, NaN, NaN, 0.04577916, "- N/A -   "
1.56, 62.1583, 0.00268512, NaN, NaN, NaN, 0.04577916, "- N/A -   "
1.61, 64.16342, 0.00277398, NaN, NaN, NaN, 0.0433376, "- N/A -   "
1.66, 66.40443, 0.00287116, NaN, NaN, NaN, 0.0384545, "- N/A -   "
1.71, 68.52748, 0.00297112, NaN, NaN, NaN, 0.0299091, "- N/A -   "
1.76, 70.5326, 0.00305998, NaN, NaN, NaN, 0.0274675, "- N/A -   "
1.81, 72.1838, 0.00313773, NaN, NaN, NaN, 0.0299091, "- N/A -   "
1.86, 73.9531, 0.00321548, NaN, NaN, NaN, 0.0323506, "- N/A -   "
1.91, 75.7223, 0.00329045, NaN, NaN, NaN, 0.03601294, "- N/A -   "
1.96, 77.37354, 0.0033682, NaN, NaN, NaN, 0.0396753, "- N/A -   "
2.01, 79.37865, 0.00345428, NaN, NaN, NaN, 0.0372337, "- N/A -   "
2.06, 81.26581, 0.00353758, NaN, NaN, NaN, 0.0372337, "- N/A -   "
2.11, 82.79912, 0.00361255, NaN, NaN, NaN, 0.04089605, "- N/A -   "
2.16, 84.68629, 0.00369308, NaN, NaN, NaN, 0.04211683, "- N/A -   "
2.21, 86.4555, 0.003770829, NaN, NaN, NaN, 0.0445584, "- N/A -   "
2.26, 88.57855, 0.003859685, NaN, NaN, NaN, 0.04211683, "- N/A -   "
2.31, 90.70161, 0.00395965, NaN, NaN, NaN, 0.03601294, "- N/A -   "
2.36, 92.94261, 0.004051281, NaN, NaN, NaN, 0.03112983, "- N/A -   "
2.41, 94.9477, 0.00413736, NaN, NaN, NaN, 0.0299091, "- N/A -   "
2.46, 96.71693, 0.004215109, NaN, NaN, NaN, 0.0323506, "- N/A -   "
2.51, 98.4861, 0.004295635, NaN, NaN, NaN, 0.0335714, "- N/A -   "
2.56, 100.3733, 0.004384491, NaN, NaN, NaN, 0.0323506, "- N/A -   "
2.61, 102.26, 0.004465017, NaN, NaN, NaN, 0.0323506, "- N/A -   "
2.66, 104.148, 0.004542766, NaN, NaN, NaN, 0.0347922, "- N/A -   "
2.71, 105.799, 0.00462607, NaN, NaN, NaN, 0.03601294, "- N/A -   "
2.76, 107.45, 0.004698264, NaN, NaN, NaN, 0.0396753, "- N/A -   "
2.81, 109.219, 0.00477879, NaN, NaN, NaN, 0.04089605, "- N/A -   "
2.86, 110.989, 0.004859315, NaN, NaN, NaN, 0.04211683, "- N/A -   "
2.91, 112.994, 0.004945395, NaN, NaN, NaN, 0.04089605, "- N/A -   "
2.96, 114.999, 0.005034251, NaN, NaN, NaN, 0.0384545, "- N/A -   "
3.01, 116.768, 0.005123107, NaN, NaN, NaN, 0.03601294, "- N/A -   "
3.06, 118.7731, 0.005209187, NaN, NaN, NaN, 0.0347922, "- N/A -   "
3.11, 120.66, 0.00529527, NaN, NaN, NaN, 0.0347922, "- N/A -   "
3.16, 122.665, 0.00538135, NaN, NaN, NaN, 0.0323506, "- N/A -   "
3.21, 124.317, 0.005461871, NaN, NaN, NaN, 0.0335714, "- N/A -   "
3.26, 126.204, 0.00554795, NaN, NaN, NaN, 0.0335714, "- N/A -   "
[...]
28.33, 1161.35, 0.0473297, NaN, NaN, NaN, 0.0335714, "- N/A -   "
28.55, 1171.84, 0.0477074, NaN, NaN, NaN, 0.0286883, "- N/A -   "
28.77, 1180.79, 0.048035, NaN, NaN, NaN, 0.04577916, "- N/A -   "
28.99, 1191.88, 0.0484321, NaN, NaN, NaN, 0.0335714, "- N/A -   "
29.21, 1201.9, 0.0487931, NaN, NaN, NaN, 0.0347922, "- N/A -   "
29.43, 1211.55, 0.04914018, NaN, NaN, NaN, 0.0433376, "- N/A -   "
29.65, 1222.76, 0.04954003, NaN, NaN, NaN, 0.0286883, "- N/A -   "
29.87, 1232.66, 0.0498955, NaN, NaN, NaN, 0.0335714, "- N/A -   "
30.09, 1242.083, 0.0502425, NaN, NaN, NaN, 0.04211683, "- N/A -   "
30.31, 1252.58, 0.0506202, NaN, NaN, NaN, 0.0372337, "- N/A -   "
30.53, 1263.07, 0.050995, NaN, NaN, NaN, 0.0335714, "- N/A -   "
30.75, 1273.09, 0.0513588, NaN, NaN, NaN, 0.0347922, "- N/A -   "
30.97, 1282.75, 0.0517087, NaN, NaN, NaN, 0.0433376, "- N/A -   "
31.19, 1293.6, 0.052103, NaN, NaN, NaN, 0.03112983, "- N/A -   "
31.41, 1303.38, 0.0524556, NaN, NaN, NaN, 0.0372337, "- N/A -   "
31.63, 1312.92, 0.05280549, NaN, NaN, NaN, 0.0445584, "- N/A -   "
31.85, 1324.13, 0.0532081, NaN, NaN, NaN, 0.0299091, "- N/A -   "
32.07, 1333.55, 0.05354966, NaN, NaN, NaN, 0.0396753, "- N/A -   "
32.29, 1343.328, 0.05391342, NaN, NaN, NaN, 0.04089605, "- N/A -   "
32.51, 1354.3, 0.0543077, NaN, NaN, NaN, 0.0286883, "- N/A -   "
32.73, 1363.72, 0.0546548, NaN, NaN, NaN, 0.0384545, "- N/A -   "
32.95, 1373.26, 0.0550019, NaN, NaN, NaN, 0.04577916, "- N/A -   "
33.17, 1384.35, 0.0553962, NaN, NaN, NaN, 0.0335714, "- N/A -   "
33.39, 1394.37, 0.05576551, NaN, NaN, NaN, 0.0323506, "- N/A -   "
33.61, 1404.03, 0.05611538, NaN, NaN, NaN, 0.0396753, "- N/A -   "
33.83, 1414.4, 0.0564958, NaN, NaN, NaN, 0.0335714, "- N/A -   "
34.05, 1424.54, 0.0568651, NaN, NaN, NaN, 0.0335714, "- N/A -   "
34.27, 1433.721, 0.0572066, NaN, NaN, NaN, 0.0433376, "- N/A -   "
34.49, 1444.69, 0.0575982, NaN, NaN, NaN, 0.0335714, "- N/A -   "
34.71, 1454.95, 0.0579703, NaN, NaN, NaN, 0.0299091, "- N/A -   "
34.93, 1463.77, 0.0582979, NaN, NaN, NaN, 0.04699994, "- N/A -   "
35.15, 1474.86, 0.058695, NaN, NaN, NaN, 0.0335714, "- N/A -   "
35.37, 1485.24, 0.05907262, NaN, NaN, NaN, 0.0299091, "- N/A -   "
35.59, 1494.18, 0.0594058, NaN, NaN, NaN, 0.0445584, "- N/A -   "
35.81, 1505.03, 0.0597974, NaN, NaN, NaN, 0.0335714, "- N/A -   "
36.03, 1514.81, 0.0601583, NaN, NaN, NaN, 0.03601294, "- N/A -   "
36.25, 1524.35, 0.0605082, NaN, NaN, NaN, 0.0433376, "- N/A -   "
36.47, 1535.2, 0.0609025, NaN, NaN, NaN, 0.03112983, "- N/A -   "
36.69, 1544.74, 0.0612635, NaN, NaN, NaN, 0.0347922, "- N/A -   "
36.91, 1554.4, 0.06161335, NaN, NaN, NaN, 0.04211683, "- N/A -   "
37.13, 1564.421, 0.0619854, NaN, NaN, NaN, 0.0396753, "- N/A -   "
37.35, 1574.796, 0.0623686, NaN, NaN, NaN, 0.0323506, "- N/A -   "
37.57, 1584.57, 0.0627296, NaN, NaN, NaN, 0.0347922, "- N/A -   "
37.79, 1594.234, 0.06308225, NaN, NaN, NaN, 0.0396753, "- N/A -   "
38.01, 1604.25, 0.06345989, NaN, NaN, NaN, 0.0347922, "- N/A -   "
38.23, 1614.39, 0.0638292, NaN, NaN, NaN, 0.0347922, "- N/A -   "
38.45, 1623.69, 0.06417629, NaN, NaN, NaN, 0.04211683, "- N/A -   "
38.67, 1634.422, 0.06457059, NaN, NaN, NaN, 0.0299091, "- N/A -   "
38.89, 1643.6, 0.0649149, NaN, NaN, NaN, 0.0396753, "- N/A -   "
39.11, 1653.26, 0.0652759, NaN, NaN, NaN, 0.0433376, "- N/A -   "
39.33, 1664.12, 0.06567296, NaN, NaN, NaN, 0.0286883, "- N/A -   "
39.55, 1673.66, 0.0660228, NaN, NaN, NaN, 0.03601294, "- N/A -   "
39.77, 1682.719, 0.06636715, NaN, NaN, NaN, 0.04577916, "- N/A -   "
39.99, 1693.69, 0.066767, NaN, NaN, NaN, 0.0323506, "- N/A -   "
40.163, 1701.56, 0.0670586, NaN, NaN, NaN, 0.03112983, "- N/A -   "