Folder: DigitalTwins-Machine-Learning/2_Tensile_Data (part 43)

File: Hamel_ForceTest_Bolt10_Test8.csv
Time, Load (lb), Position (in), AxialStrain (in), TransverseStrain (in), Auxiliary (), Control Out (V), Stress (psi)
0.0, 9.671693, 0.0, NaN, NaN, NaN, -0.007935055, "- N/A -   "
0.01, 9.671693, 0.0, NaN, NaN, NaN, -6.103888E-4, "- N/A -   "
0.02, 9.671693, 0.0, NaN, NaN, NaN, 0.006714277, "- N/A -   "
0.03, 9.78964, 0.0, NaN, NaN, NaN, 0.0213636, "- N/A -   "
0.04, 9.671693, 5.553504E-6, NaN, NaN, NaN, 0.0384545, "- N/A -   "
0.05, 9.907588, 1.38838e-05, NaN, NaN, NaN, 0.0543246, "- N/A -   "
0.06, 10.1435, 2.77675e-05, NaN, NaN, NaN, 0.06775316, "- N/A -   "
0.07, 10.26143, 4.99815e-05, NaN, NaN, NaN, 0.07874016, "- N/A -   "
0.08, 10.6153, 7.49723E-5, NaN, NaN, NaN, 0.0872856, "- N/A -   "
0.09, 10.9691, 9.99631e-05, NaN, NaN, NaN, 0.09461027, "- N/A -   "
0.1, 11.323, 0.000130507, NaN, NaN, NaN, 0.09949338, "- N/A -   "
0.11, 11.7947, 0.000158275, NaN, NaN, NaN, 0.09338949, "- N/A -   "
0.12, 12.0306, 0.000188819, NaN, NaN, NaN, 0.0872856, "- N/A -   "
0.13, 12.3845, 0.000216587, NaN, NaN, NaN, 0.08240249, "- N/A -   "
0.14, 12.7383, 2.415774E-4, NaN, NaN, NaN, 0.07874016, "- N/A -   "
0.15, 13.09217, 0.000269345, NaN, NaN, NaN, 0.07385705, "- N/A -   "
0.16, 13.446, 0.000291559, NaN, NaN, NaN, 0.07141549, "- N/A -   "
0.17, 13.6819, 0.000313773, NaN, NaN, NaN, 0.0689739, "- N/A -   "
0.18, 13.7999, 0.00033321, NaN, NaN, NaN, 0.06775316, "- N/A -   "
0.19, 14.1537, 0.000352647, NaN, NaN, NaN, 0.06653238, "- N/A -   "
0.2, 14.3896, 0.000372085, NaN, NaN, NaN, 0.0653116, "- N/A -   "
0.21, 14.6255, 0.000391522, NaN, NaN, NaN, 0.0640908, "- N/A -   "
0.22, 14.8614, 0.000410959, NaN, NaN, NaN, 0.06287005, "- N/A -   "
0.23, 15.0973, 0.000430397, NaN, NaN, NaN, 0.06164927, "- N/A -   "
0.24, 15.2152, 0.000449834, NaN, NaN, NaN, 0.0604285, "- N/A -   "
0.25, 15.4511, 0.000469271, NaN, NaN, NaN, 0.0592077, "- N/A -   "
0.26, 15.805, 0.000485932, NaN, NaN, NaN, 0.0592077, "- N/A -   "
0.27, 15.805, 5.053688E-4, NaN, NaN, NaN, 0.0579869, "- N/A -   "
0.28, 16.1588, 5.248061E-4, NaN, NaN, NaN, 0.05676616, "- N/A -   "
0.29, 16.3947, 5.442434E-4, NaN, NaN, NaN, 0.0555454, "- N/A -   "
0.3, 16.6306, 5.636806E-4, NaN, NaN, NaN, 0.0543246, "- N/A -   "
0.31, 16.86649, 5.858946E-4, NaN, NaN, NaN, 0.0531038, "- N/A -   "
0.32, 17.1024, 0.000602555, NaN, NaN, NaN, 0.05188305, "- N/A -   "
0.33, 17.4562, 0.000624769, NaN, NaN, NaN, 0.0494415, "- N/A -   "
0.34, 17.5742, 6.442064E-4, NaN, NaN, NaN, 0.0482207, "- N/A -   "
0.35, 17.8101, 6.636437E-4, NaN, NaN, NaN, 0.04699994, "- N/A -   "
0.36, 18.046, 6.858577E-4, NaN, NaN, NaN, 0.04577916, "- N/A -   "
0.37, 18.16391, 7.025182E-4, NaN, NaN, NaN, 0.0445584, "- N/A -   "
0.38, 18.3998, 7.191787E-4, NaN, NaN, NaN, 0.0445584, "- N/A -   "
0.39, 18.6357, 7.38616E-4, NaN, NaN, NaN, 0.0433376, "- N/A -   "
0.4, 18.8716, 0.000758053, NaN, NaN, NaN, 0.04211683, "- N/A -   "
0.41, 19.1075, 0.000774714, NaN, NaN, NaN, 0.04211683, "- N/A -   "
0.42, 19.3434, 0.000794151, NaN, NaN, NaN, 0.04089605, "- N/A -   "
0.43, 19.57928, 0.000813588, NaN, NaN, NaN, 0.0396753, "- N/A -   "
0.44, 19.6972, 0.000833026, NaN, NaN, NaN, 0.0384545, "- N/A -   "
0.45, 19.9331, 0.000849686, NaN, NaN, NaN, 0.0384545, "- N/A -   "
0.46, 20.169, 8.635698E-4, NaN, NaN, NaN, 0.0396753, "- N/A -   "
0.47, 20.287, 8.830071E-4, NaN, NaN, NaN, 0.0384545, "- N/A -   "
0.48, 20.52286, 0.000899668, NaN, NaN, NaN, 0.0384545, "- N/A -   "
0.54, 21.7023, 0.00100796, NaN, NaN, NaN, 0.0347922, "- N/A -   "
0.6, 22.9998, 0.00111348, NaN, NaN, NaN, 0.0323506, "- N/A -   "
0.66, 24.29718, 0.00121622, NaN, NaN, NaN, 0.03112983, "- N/A -   "
0.72, 25.3587, 0.00131063, NaN, NaN, NaN, 0.0335714, "- N/A -   "
0.78, 26.5382, 0.001399483, NaN, NaN, NaN, 0.0384545, "- N/A -   "
0.84, 27.5997, 0.00149112, NaN, NaN, NaN, 0.04211683, "- N/A -   "
0.9, 28.89713, 0.00158553, NaN, NaN, NaN, 0.0445584, "- N/A -   "
0.96, 30.1946, 0.00168827, NaN, NaN, NaN, 0.0433376, "- N/A -   "
1.02, 31.6099, 0.00179934, NaN, NaN, NaN, 0.0396753, "- N/A -   "
1.08, 33.1432, 0.00191041, NaN, NaN, NaN, 0.0335714, "- N/A -   "
1.14, 34.55861, 0.0020187, NaN, NaN, NaN, 0.0299091, "- N/A -   "
1.2, 36.0919, 0.002126992, NaN, NaN, NaN, 0.0262467, "- N/A -   "
1.26, 37.3893, 0.0022214, NaN, NaN, NaN, 0.0286883, "- N/A -   "
1.32, 38.5688, 0.00230748, NaN, NaN, NaN, 0.0347922, "- N/A -   "
1.38, 39.8662, 0.00240189, NaN, NaN, NaN, 0.0372337, "- N/A -   "
1.44, 41.04572, 0.00249908, NaN, NaN, NaN, 0.0384545, "- N/A -   "
1.5, 42.4611, 0.00259349, NaN, NaN, NaN, 0.04089605, "- N/A -   "
1.56, 43.75851, 0.0026879, NaN, NaN, NaN, 0.0433376, "- N/A -   "
1.62, 45.05593, 0.002785082, NaN, NaN, NaN, 0.0445584, "- N/A -   "
1.68, 46.5893, 0.00289338, NaN, NaN, NaN, 0.04089605, "- N/A -   "
1.74, 48.3585, 0.003007222, NaN, NaN, NaN, 0.0347922, "- N/A -   "
1.8, 49.7738, 0.003112739, NaN, NaN, NaN, 0.0335714, "- N/A -   "
1.86, 51.1892, 0.00320715, NaN, NaN, NaN, 0.0347922, "- N/A -   "
1.92, 52.48662, 0.003301558, NaN, NaN, NaN, 0.0384545, "- N/A -   "
1.98, 54.0199, 0.00340152, NaN, NaN, NaN, 0.0372337, "- N/A -   "
2.04, 55.55326, 0.00351259, NaN, NaN, NaN, 0.0335714, "- N/A -   "
2.1, 56.9686, 0.003607, NaN, NaN, NaN, 0.0347922, "- N/A -   "
2.16, 58.26605, 0.00369863, NaN, NaN, NaN, 0.0396753, "- N/A -   "
2.22, 59.79937, 0.00379582, NaN, NaN, NaN, 0.0396753, "- N/A -   "
2.28, 61.2147, 0.00389301, NaN, NaN, NaN, 0.04089605, "- N/A -   "
2.34, 62.866, 0.00399852, NaN, NaN, NaN, 0.0384545, "- N/A -   "
2.4, 64.5173, 0.00410959, NaN, NaN, NaN, 0.0335714, "- N/A -   "
2.46, 66.16853, 0.004206779, NaN, NaN, NaN, 0.0347922, "- N/A -   "
2.52, 67.5839, 0.004306742, NaN, NaN, NaN, 0.0347922, "- N/A -   "
2.58, 69.23517, 0.00441504, NaN, NaN, NaN, 0.0323506, "- N/A -   "
2.64, 70.6505, 0.004512222, NaN, NaN, NaN, 0.0323506, "- N/A -   "
2.7, 72.1838, 0.004609408, NaN, NaN, NaN, 0.0335714, "- N/A -   "
2.76, 73.83511, 0.004703818, NaN, NaN, NaN, 0.03601294, "- N/A -   "
2.82, 75.48638, 0.004809334, NaN, NaN, NaN, 0.0335714, "- N/A -   "
2.88, 76.90175, 0.00490097, NaN, NaN, NaN, 0.0372337, "- N/A -   "
2.94, 78.4351, 0.004995377, NaN, NaN, NaN, 0.0396753, "- N/A -   "
3, 79.85043, 0.005084233, NaN, NaN, NaN, 0.0445584, "- N/A -   "
3.06, 81.61965, 0.00518975, NaN, NaN, NaN, 0.04211683, "- N/A -   "
3.12, 83.38886, 0.005295266, NaN, NaN, NaN, 0.0396753, "- N/A -   "
3.18, 85.15807, 0.00540911, NaN, NaN, NaN, 0.0335714, "- N/A -   "
3.24, 86.80934, 0.00550908, NaN, NaN, NaN, 0.0347922, "- N/A -   "
3.3, 88.34265, 0.00560626, NaN, NaN, NaN, 0.0347922, "- N/A -   "
3.36, 90.11186, 0.00571178, NaN, NaN, NaN, 0.0335714, "- N/A -   "
3.42, 91.88108, 0.005820072, NaN, NaN, NaN, 0.0286883, "- N/A -   "
3.48, 93.53234, 0.005914482, NaN, NaN, NaN, 0.03112983, "- N/A -   "
3.54, 94.7118, 0.00600056, NaN, NaN, NaN, 0.0372337, "- N/A -   "
3.6, 96.36309, 0.006089417, NaN, NaN, NaN, 0.04211683, "- N/A -   "
3.66, 97.77845, 0.00618105, NaN, NaN, NaN, 0.0482207, "- N/A -   "
3.72, 99.7836, 0.006289343, NaN, NaN, NaN, 0.0433376, "- N/A -   "
3.78, 101.671, 0.006405967, NaN, NaN, NaN, 0.03601294, "- N/A -   "
3.84, 103.44, 0.00651148, NaN, NaN, NaN, 0.0335714, "- N/A -   "
3.9, 105.091, 0.006608669, NaN, NaN, NaN, 0.0347922, "- N/A -   "
3.96, 107.0963, 0.00672252, NaN, NaN, NaN, 0.0286883, "- N/A -   "
4.02, 108.748, 0.006825256, NaN, NaN, NaN, 0.0274675, "- N/A -   "
[...]
34.03, 1285.73, 0.056829, NaN, NaN, NaN, 0.0323506, "- N/A -   "
34.1, 1289.07, 0.056954, NaN, NaN, NaN, 0.0299091, "- N/A -   "
34.17, 1292.05, 0.0570678, NaN, NaN, NaN, 0.0299091, "- N/A -   "
34.24, 1294.67, 0.0571705, NaN, NaN, NaN, 0.03601294, "- N/A -   "
34.31, 1297.18, 0.0572677, NaN, NaN, NaN, 0.0445584, "- N/A -   "
34.38, 1300.16, 0.0573816, NaN, NaN, NaN, 0.04699994, "- N/A -   "
34.45, 1303.74, 0.0575121, NaN, NaN, NaN, 0.0396753, "- N/A -   "
34.52, 1307.08, 0.05763426, NaN, NaN, NaN, 0.0372337, "- N/A -   "
34.59, 1310.295, 0.0577592, NaN, NaN, NaN, 0.0335714, "- N/A -   "
34.66, 1313.515, 0.0578814, NaN, NaN, NaN, 0.03112983, "- N/A -   "
34.73, 1316.62, 0.057998, NaN, NaN, NaN, 0.03112983, "- N/A -   "
34.8, 1319.72, 0.05811464, NaN, NaN, NaN, 0.03112983, "- N/A -   "
34.87, 1322.22, 0.0582174, NaN, NaN, NaN, 0.0372337, "- N/A -   "
34.94, 1324.844, 0.0583173, NaN, NaN, NaN, 0.0445584, "- N/A -   "
35.01, 1327.94, 0.0584367, NaN, NaN, NaN, 0.0445584, "- N/A -   "
35.08, 1331.04, 0.0585534, NaN, NaN, NaN, 0.0433376, "- N/A -   "
35.15, 1334.5, 0.0586811, NaN, NaN, NaN, 0.0384545, "- N/A -   "
35.22, 1338.2, 0.0588172, NaN, NaN, NaN, 0.03112983, "- N/A -   "
35.29, 1341.54, 0.0589393, NaN, NaN, NaN, 0.0274675, "- N/A -   "
35.36, 1344.52, 0.059056, NaN, NaN, NaN, 0.0286883, "- N/A -   "
35.43, 1347.38, 0.0591615, NaN, NaN, NaN, 0.0335714, "- N/A -   "
35.5, 1350.36, 0.05927532, NaN, NaN, NaN, 0.03601294, "- N/A -   "
35.57, 1353.35, 0.0593892, NaN, NaN, NaN, 0.03601294, "- N/A -   "
35.64, 1355.85, 0.0594891, NaN, NaN, NaN, 0.0433376, "- N/A -   "
35.71, 1358.71, 0.0595974, NaN, NaN, NaN, 0.0482207, "- N/A -   "
35.78, 1362.05, 0.0597168, NaN, NaN, NaN, 0.04577916, "- N/A -   "
35.85, 1365.99, 0.05985844, NaN, NaN, NaN, 0.0347922, "- N/A -   "
35.92, 1369.09, 0.05997784, NaN, NaN, NaN, 0.0335714, "- N/A -   "
35.99, 1371.95, 0.06008613, NaN, NaN, NaN, 0.0372337, "- N/A -   "
36.06, 1375.05, 0.06020276, NaN, NaN, NaN, 0.0372337, "- N/A -   "
36.13, 1378.27, 0.0603305, NaN, NaN, NaN, 0.0335714, "- N/A -   "
36.2, 1381.37, 0.0604416, NaN, NaN, NaN, 0.0347922, "- N/A -   "
36.27, 1383.99, 0.0605471, NaN, NaN, NaN, 0.0396753, "- N/A -   "
36.34, 1386.85, 0.0606554, NaN, NaN, NaN, 0.0433376, "- N/A -   "
36.41, 1390.194, 0.0607775, NaN, NaN, NaN, 0.04211683, "- N/A -   "
36.48, 1393.53, 0.0609025, NaN, NaN, NaN, 0.0372337, "- N/A -   "
36.55, 1396.75, 0.0610219, NaN, NaN, NaN, 0.03601294, "- N/A -   "
36.62, 1399.73, 0.0611385, NaN, NaN, NaN, 0.03601294, "- N/A -   "
36.69, 1403.07, 0.0612635, NaN, NaN, NaN, 0.0323506, "- N/A -   "
36.76, 1406.05, 0.06137732, NaN, NaN, NaN, 0.0335714, "- N/A -   "
36.83, 1409.51, 0.0614995, NaN, NaN, NaN, 0.03112983, "- N/A -   "
36.9, 1412.37, 0.0616133, NaN, NaN, NaN, 0.0323506, "- N/A -   "
36.97, 1415.36, 0.0617272, NaN, NaN, NaN, 0.0347922, "- N/A -   "
37.04, 1417.98, 0.0618272, NaN, NaN, NaN, 0.04089605, "- N/A -   "
37.11, 1420.6, 0.06192712, NaN, NaN, NaN, 0.0482207, "- N/A -   "
37.18, 1423.82, 0.0620493, NaN, NaN, NaN, 0.04577916, "- N/A -   "
37.25, 1427.639, 0.0621798, NaN, NaN, NaN, 0.0396753, "- N/A -   "
37.32, 1430.86, 0.0623075, NaN, NaN, NaN, 0.0347922, "- N/A -   "
37.39, 1433.84, 0.06242416, NaN, NaN, NaN, 0.0347922, "- N/A -   "
37.46, 1437.3, 0.0625491, NaN, NaN, NaN, 0.03112983, "- N/A -   "
37.53, 1440.52, 0.06267129, NaN, NaN, NaN, 0.0299091, "- N/A -   "
37.6, 1443.26, 0.06277403, NaN, NaN, NaN, 0.0347922, "- N/A -   "
37.67, 1445.88, 0.06287399, NaN, NaN, NaN, 0.04211683, "- N/A -   "
37.74, 1448.51, 0.06298228, NaN, NaN, NaN, 0.04699994, "- N/A -   "
37.795, 1450.774, 0.06306836, NaN, NaN, NaN, 0.0482207, "- N/A -   "

File: Hamel_ForceTest_Bolt10_Test9.csv
Time, Load (lb), Position (in), AxialStrain (in), TransverseStrain (in), Auxiliary (), Control Out (V), Stress (psi)
0.0, 10.1435, 0.0, NaN, NaN, NaN, -0.006714277, "- N/A -   "
0.01, 10.26143, 2.776752E-6, NaN, NaN, NaN, -6.103888E-4, "- N/A -   "
0.02, 10.1435, 2.776752E-6, NaN, NaN, NaN, 0.007935055, "- N/A -   "
0.03, 10.1435, 2.776752E-6, NaN, NaN, NaN, 0.0274675, "- N/A -   "
0.04, 10.26143, 1.1107e-05, NaN, NaN, NaN, 0.0445584, "- N/A -   "
0.05, 10.3794, 2.2214e-05, NaN, NaN, NaN, 0.0579869, "- N/A -   "
0.06, 10.8512, 4.16513e-05, NaN, NaN, NaN, 0.0689739, "- N/A -   "
0.07, 11.0871, 6.386529E-5, NaN, NaN, NaN, 0.07874016, "- N/A -   "
0.08, 11.6768, 8.885606E-5, NaN, NaN, NaN, 0.0872856, "- N/A -   "
0.09, 12.14859, 0.000116624, NaN, NaN, NaN, 0.095831, "- N/A -   "
0.1, 12.6204, 0.000147168, NaN, NaN, NaN, 0.09461027, "- N/A -   "
0.11, 12.9742, 0.000174935, NaN, NaN, NaN, 0.08850638, "- N/A -   "
0.12, 13.564, 0.000202703, NaN, NaN, NaN, 0.08362327, "- N/A -   "
0.13, 14.0357, 2.304704E-4, NaN, NaN, NaN, 0.07874016, "- N/A -   "
0.14, 14.3896, 0.000255461, NaN, NaN, NaN, 0.0750778, "- N/A -   "
0.15, 14.7434, 0.000280452, NaN, NaN, NaN, 0.07263627, "- N/A -   "
0.16, 15.2152, 2.998892E-4, NaN, NaN, NaN, 0.0701947, "- N/A -   "
0.17, 15.3332, 0.000319326, NaN, NaN, NaN, 0.0689739, "- N/A -   "
0.18, 15.687, 0.00034154, NaN, NaN, NaN, 0.06775316, "- N/A -   "
0.19, 16.0409, 0.000360978, NaN, NaN, NaN, 0.0653116, "- N/A -   "
0.2, 16.27675, 3.80415E-4, NaN, NaN, NaN, 0.0640908, "- N/A -   "
0.21, 16.6306, 0.000397076, NaN, NaN, NaN, 0.0640908, "- N/A -   "
0.22, 16.86649, 0.000416513, NaN, NaN, NaN, 0.0640908, "- N/A -   "
0.23, 17.1024, 4.331733E-4, NaN, NaN, NaN, 0.06287005, "- N/A -   "
0.24, 17.3383, 0.000452611, NaN, NaN, NaN, 0.06164927, "- N/A -   "
0.25, 17.8101, 0.000474825, NaN, NaN, NaN, 0.0604285, "- N/A -   "
0.26, 18.046, 0.000491485, NaN, NaN, NaN, 0.0592077, "- N/A -   "
0.27, 18.16391, 0.000510922, NaN, NaN, NaN, 0.0579869, "- N/A -   "
0.28, 18.5178, 0.00053036, NaN, NaN, NaN, 0.05676616, "- N/A -   "
0.29, 18.8716, 5.470201E-4, NaN, NaN, NaN, 0.05676616, "- N/A -   "
0.3, 19.1075, 0.000569234, NaN, NaN, NaN, 0.0543246, "- N/A -   "
0.31, 19.3434, 0.000591448, NaN, NaN, NaN, 0.05188305, "- N/A -   "
0.32, 19.6972, 6.108854E-4, NaN, NaN, NaN, 0.05066227, "- N/A -   "
0.33, 19.9331, 0.000630323, NaN, NaN, NaN, 0.0494415, "- N/A -   "
0.34, 20.169, 6.525367E-4, NaN, NaN, NaN, 0.04699994, "- N/A -   "
0.35, 20.52286, 6.719739E-4, NaN, NaN, NaN, 0.04577916, "- N/A -   "
0.36, 20.8767, 6.914112E-4, NaN, NaN, NaN, 0.0445584, "- N/A -   "
0.37, 21.1126, 7.108485E-4, NaN, NaN, NaN, 0.0433376, "- N/A -   "
0.38, 21.46644, 7.302857E-4, NaN, NaN, NaN, 0.04211683, "- N/A -   "
0.39, 21.7023, 7.49723E-4, NaN, NaN, NaN, 0.04211683, "- N/A -   "
0.4, 21.93823, 7.663835E-4, NaN, NaN, NaN, 0.04089605, "- N/A -   "
0.41, 22.1741, 0.000785821, NaN, NaN, NaN, 0.04089605, "- N/A -   "
0.42, 22.41, 0.000802481, NaN, NaN, NaN, 0.0396753, "- N/A -   "
0.43, 22.6459, 8.191418E-4, NaN, NaN, NaN, 0.0396753, "- N/A -   "
0.44, 22.9998, 8.358023E-4, NaN, NaN, NaN, 0.0396753, "- N/A -   "
0.45, 23.2357, 8.524628E-4, NaN, NaN, NaN, 0.0396753, "- N/A -   "
0.46, 23.3536, 0.0008719, NaN, NaN, NaN, 0.0384545, "- N/A -   "
0.47, 23.7074, 0.000891337, NaN, NaN, NaN, 0.0384545, "- N/A -   "
0.48, 23.9433, 0.000907998, NaN, NaN, NaN, 0.0372337, "- N/A -   "
0.49, 24.1792, 9.246584E-4, NaN, NaN, NaN, 0.0372337, "- N/A -   "
0.5, 24.5331, 9.440956E-4, NaN, NaN, NaN, 0.0372337, "- N/A -   "
0.51, 24.8869, 0.000960756, NaN, NaN, NaN, 0.03601294, "- N/A -   "
0.56, 26.0664, 0.00104961, NaN, NaN, NaN, 0.0335714, "- N/A -   "
0.61, 27.3638, 0.00113569, NaN, NaN, NaN, 0.0323506, "- N/A -   "
0.66, 28.6612, 0.001218994, NaN, NaN, NaN, 0.0323506, "- N/A -   "
0.71, 29.84071, 0.001296743, NaN, NaN, NaN, 0.0347922, "- N/A -   "
0.76, 31.0202, 0.00137172, NaN, NaN, NaN, 0.0396753, "- N/A -   "
0.81, 32.1997, 0.00144669, NaN, NaN, NaN, 0.0433376, "- N/A -   "
0.86, 33.49708, 0.00152166, NaN, NaN, NaN, 0.04577916, "- N/A -   "
0.91, 34.9125, 0.00160774, NaN, NaN, NaN, 0.0445584, "- N/A -   "
0.96, 36.2099, 0.00169104, NaN, NaN, NaN, 0.0445584, "- N/A -   "
1.01, 37.8611, 0.00178545, NaN, NaN, NaN, 0.0396753, "- N/A -   "
1.06, 39.15856, 0.00187708, NaN, NaN, NaN, 0.03601294, "- N/A -   "
1.11, 40.9278, 0.001982601, NaN, NaN, NaN, 0.0274675, "- N/A -   "
1.16, 42.3431, 0.00206313, NaN, NaN, NaN, 0.0274675, "- N/A -   "
1.21, 43.87646, 0.002138099, NaN, NaN, NaN, 0.03112983, "- N/A -   "
1.26, 45.29183, 0.00221862, NaN, NaN, NaN, 0.0323506, "- N/A -   "
1.31, 46.9431, 0.002304704, NaN, NaN, NaN, 0.0323506, "- N/A -   "
1.36, 48.3585, 0.002382453, NaN, NaN, NaN, 0.0335714, "- N/A -   "
1.41, 49.8918, 0.0024602, NaN, NaN, NaN, 0.0372337, "- N/A -   "
1.46, 51.543, 0.00254073, NaN, NaN, NaN, 0.0372337, "- N/A -   "
1.51, 53.19431, 0.0026157, NaN, NaN, NaN, 0.04089605, "- N/A -   "
1.56, 54.7276, 0.00269345, NaN, NaN, NaN, 0.0433376, "- N/A -   "
1.61, 56.143, 0.0027712, NaN, NaN, NaN, 0.04577916, "- N/A -   "
1.66, 58.1481, 0.00286283, NaN, NaN, NaN, 0.0433376, "- N/A -   "
1.71, 60.15321, 0.002954464, NaN, NaN, NaN, 0.0384545, "- N/A -   "
1.76, 62.0404, 0.0030461, NaN, NaN, NaN, 0.0347922, "- N/A -   "
1.81, 63.6916, 0.00313773, NaN, NaN, NaN, 0.0323506, "- N/A -   "
1.86, 65.3429, 0.003215479, NaN, NaN, NaN, 0.0335714, "- N/A -   "
1.91, 67.1121, 0.00329323, NaN, NaN, NaN, 0.03601294, "- N/A -   "
1.96, 68.7634, 0.003382084, NaN, NaN, NaN, 0.0347922, "- N/A -   "
2.01, 70.6505, 0.00346539, NaN, NaN, NaN, 0.0335714, "- N/A -   "
2.06, 72.1838, 0.00354591, NaN, NaN, NaN, 0.03601294, "- N/A -   "
2.11, 74.071, 0.003626438, NaN, NaN, NaN, 0.03601294, "- N/A -   "
2.16, 75.6043, 0.00370141, NaN, NaN, NaN, 0.0396753, "- N/A -   "
2.21, 77.13765, 0.00377638, NaN, NaN, NaN, 0.0445584, "- N/A -   "
2.26, 79.0248, 0.00386246, NaN, NaN, NaN, 0.04211683, "- N/A -   "
2.31, 80.912, 0.00394854, NaN, NaN, NaN, 0.04089605, "- N/A -   "
2.36, 82.79912, 0.00404017, NaN, NaN, NaN, 0.0372337, "- N/A -   "
2.41, 84.68629, 0.00412903, NaN, NaN, NaN, 0.03601294, "- N/A -   "
2.46, 86.4555, 0.00421233, NaN, NaN, NaN, 0.0347922, "- N/A -   "
2.51, 88.34265, 0.00430119, NaN, NaN, NaN, 0.0323506, "- N/A -   "
2.56, 90.11186, 0.004384491, NaN, NaN, NaN, 0.0335714, "- N/A -   "
2.61, 91.88108, 0.004465017, NaN, NaN, NaN, 0.0335714, "- N/A -   "
2.66, 93.53234, 0.00454832, NaN, NaN, NaN, 0.0335714, "- N/A -   "
2.71, 95.5374, 0.00463718, NaN, NaN, NaN, 0.03112983, "- N/A -   "
2.76, 97.18872, 0.004714925, NaN, NaN, NaN, 0.0335714, "- N/A -   "
2.81, 98.9579, 0.00479545, NaN, NaN, NaN, 0.0347922, "- N/A -   "
2.86, 100.6092, 0.0048732, NaN, NaN, NaN, 0.0372337, "- N/A -   "
2.91, 102.26, 0.004950949, NaN, NaN, NaN, 0.0396753, "- N/A -   "
2.96, 104.03, 0.00503147, NaN, NaN, NaN, 0.04089605, "- N/A -   "
3.01, 105.681, 0.00510922, NaN, NaN, NaN, 0.0433376, "- N/A -   "
3.06, 107.45, 0.005195303, NaN, NaN, NaN, 0.0433376, "- N/A -   "
3.11, 109.455, 0.005284159, NaN, NaN, NaN, 0.0396753, "- N/A -   "
3.16, 111.578, 0.00537857, NaN, NaN, NaN, 0.0347922, "- N/A -   "
3.21, 113.465, 0.00546465, NaN, NaN, NaN, 0.0347922, "- N/A -   "
3.26, 115.117, 0.00554517, NaN, NaN, NaN, 0.03601294, "- N/A -   "
[...]
36.41, 1509.09, 0.0607831, NaN, NaN, NaN, 0.04211683, "- N/A -   "
36.54, 1515.17, 0.061008, NaN, NaN, NaN, 0.0372337, "- N/A -   "
36.67, 1521.37, 0.06123293, NaN, NaN, NaN, 0.0335714, "- N/A -   "
36.8, 1527.453, 0.06145507, NaN, NaN, NaN, 0.03112983, "- N/A -   "
36.93, 1533.18, 0.06166888, NaN, NaN, NaN, 0.0323506, "- N/A -   "
37.06, 1538.19, 0.0618605, NaN, NaN, NaN, 0.0433376, "- N/A -   "
37.19, 1543.91, 0.06207151, NaN, NaN, NaN, 0.04577916, "- N/A -   "
37.32, 1550.83, 0.0623186, NaN, NaN, NaN, 0.0323506, "- N/A -   "
37.45, 1556.55, 0.06253523, NaN, NaN, NaN, 0.0323506, "- N/A -   "
37.58, 1562.39, 0.0627546, NaN, NaN, NaN, 0.0323506, "- N/A -   "
37.71, 1567.4, 0.0629462, NaN, NaN, NaN, 0.0433376, "- N/A -   "
37.84, 1573.25, 0.0631628, NaN, NaN, NaN, 0.0433376, "- N/A -   "
37.97, 1579.8, 0.06340157, NaN, NaN, NaN, 0.0323506, "- N/A -   "
38.1, 1586.01, 0.06362926, NaN, NaN, NaN, 0.0274675, "- N/A -   "
38.23, 1591.49, 0.0638403, NaN, NaN, NaN, 0.03112983, "- N/A -   "
38.36, 1596.26, 0.06402356, NaN, NaN, NaN, 0.0445584, "- N/A -   "
38.49, 1602.1, 0.06424015, NaN, NaN, NaN, 0.04577916, "- N/A -   "
38.62, 1608.66, 0.064479, NaN, NaN, NaN, 0.03601294, "- N/A -   "
38.75, 1614.75, 0.0647066, NaN, NaN, NaN, 0.0299091, "- N/A -   "
38.88, 1620.23, 0.06490657, NaN, NaN, NaN, 0.0372337, "- N/A -   "
39.01, 1625.84, 0.0651204, NaN, NaN, NaN, 0.0384545, "- N/A -   "
39.14, 1631.08, 0.0653231, NaN, NaN, NaN, 0.04577916, "- N/A -   "
39.27, 1638, 0.06557299, NaN, NaN, NaN, 0.0299091, "- N/A -   "
39.4, 1643.49, 0.06578125, NaN, NaN, NaN, 0.0335714, "- N/A -   "
39.53, 1649.45, 0.06600339, NaN, NaN, NaN, 0.03112983, "- N/A -   "
39.66, 1654.81, 0.06620609, NaN, NaN, NaN, 0.0372337, "- N/A -   "
39.79, 1660.3, 0.06641713, NaN, NaN, NaN, 0.04089605, "- N/A -   "
39.92, 1666.26, 0.06663649, NaN, NaN, NaN, 0.0396753, "- N/A -   "
40.05, 1672.22, 0.0668586, NaN, NaN, NaN, 0.0372337, "- N/A -   "
40.18, 1677.949, 0.067078, NaN, NaN, NaN, 0.03601294, "- N/A -   "
40.31, 1683.79, 0.0672974, NaN, NaN, NaN, 0.0347922, "- N/A -   "
40.44, 1689.16, 0.0675028, NaN, NaN, NaN, 0.0396753, "- N/A -   "
40.57, 1694.64, 0.06771109, NaN, NaN, NaN, 0.0433376, "- N/A -   "
40.7, 1701.203, 0.06795545, NaN, NaN, NaN, 0.03112983, "- N/A -   "
40.83, 1706.57, 0.0681637, NaN, NaN, NaN, 0.0347922, "- N/A -   "
40.96, 1712.65, 0.0683914, NaN, NaN, NaN, 0.0299091, "- N/A -   "
41.09, 1717.42, 0.06858022, NaN, NaN, NaN, 0.04211683, "- N/A -   "
41.22, 1722.67, 0.06878292, NaN, NaN, NaN, 0.0482207, "- N/A -   "
41.35, 1729.108, 0.0690245, NaN, NaN, NaN, 0.0372337, "- N/A -   "
41.48, 1735.55, 0.06926052, NaN, NaN, NaN, 0.0286883, "- N/A -   "
41.61, 1740.68, 0.0694688, NaN, NaN, NaN, 0.0335714, "- N/A -   "
41.74, 1745.565, 0.06966037, NaN, NaN, NaN, 0.0445584, "- N/A -   "
41.87, 1751.17, 0.06987418, NaN, NaN, NaN, 0.0445584, "- N/A -   "
42, 1757.49, 0.07011299, NaN, NaN, NaN, 0.0347922, "- N/A -   "
42.13, 1763.69, 0.07034346, NaN, NaN, NaN, 0.0286883, "- N/A -   "
42.26, 1769.18, 0.07055449, NaN, NaN, NaN, 0.03112983, "- N/A -   "
42.39, 1774.19, 0.07075441, NaN, NaN, NaN, 0.0384545, "- N/A -   "
42.52, 1778.96, 0.07094323, NaN, NaN, NaN, 0.05066227, "- N/A -   "
42.65, 1785.63, 0.0711876, NaN, NaN, NaN, 0.0384545, "- N/A -   "
42.78, 1791.83, 0.07142083, NaN, NaN, NaN, 0.03112983, "- N/A -   "
42.91, 1797.44, 0.07163742, NaN, NaN, NaN, 0.0323506, "- N/A -   "
43.04, 1802.81, 0.07184567, NaN, NaN, NaN, 0.03601294, "- N/A -   "
43.17, 1808.05, 0.07204838, NaN, NaN, NaN, 0.04211683, "- N/A -   "
43.188, 1808.89, 0.07207892, NaN, NaN, NaN, 0.04089605, "- N/A -   "