Folder: DigitalTwins-Machine-Learning/2_Tensile_Data (part 30)

File: Hamel_ForceTest_Bolt8_Test4.csv
Time, Load (lb), Position (in), AxialStrain (in), TransverseStrain (in), Auxiliary (), Control Out (V), Stress (psi)
0.0, 1.29742, 0.0, NaN, NaN, NaN, 0.09949338, "- N/A -   "
0.01, 1.76921, 3.3321e-05, NaN, NaN, NaN, 0.104376, "- N/A -   "
0.02, 2.35895, 6.94188E-5, NaN, NaN, NaN, 0.095831, "- N/A -   "
0.03, 2.712792, 0.00010274, NaN, NaN, NaN, 0.08850638, "- N/A -   "
0.04, 3.30253, 0.000133284, NaN, NaN, NaN, 0.08240249, "- N/A -   "
0.05, 3.53842, 0.000163828, NaN, NaN, NaN, 0.0762986, "- N/A -   "
0.06, 4.010214, 0.000188819, NaN, NaN, NaN, 0.07263627, "- N/A -   "
0.07, 4.482, 0.000216587, NaN, NaN, NaN, 0.06775316, "- N/A -   "
0.08, 4.59995, 0.000238801, NaN, NaN, NaN, 0.0653116, "- N/A -   "
0.09, 5.071741, 0.000261015, NaN, NaN, NaN, 0.06287005, "- N/A -   "
0.1, 5.425584, 0.000280452, NaN, NaN, NaN, 0.06164927, "- N/A -   "
0.11, 5.66148, 2.998892E-4, NaN, NaN, NaN, 0.0604285, "- N/A -   "
0.12, 5.897373, 0.000319326, NaN, NaN, NaN, 0.0592077, "- N/A -   "
0.13, 6.251216, 0.000338764, NaN, NaN, NaN, 0.0579869, "- N/A -   "
0.14, 6.487111, 0.000358201, NaN, NaN, NaN, 0.05676616, "- N/A -   "
0.15, 6.60506, 0.000372085, NaN, NaN, NaN, 0.0579869, "- N/A -   "
0.16, 6.84095, 0.000388745, NaN, NaN, NaN, 0.0579869, "- N/A -   "
0.17, 7.07685, 0.000405406, NaN, NaN, NaN, 0.0579869, "- N/A -   "
0.18, 7.312743, 0.000422066, NaN, NaN, NaN, 0.0579869, "- N/A -   "
0.19, 7.548638, 4.387268E-4, NaN, NaN, NaN, 0.0579869, "- N/A -   "
0.2, 7.90248, 4.553873E-4, NaN, NaN, NaN, 0.0579869, "- N/A -   "
0.21, 8.020428, 4.720478E-4, NaN, NaN, NaN, 0.0579869, "- N/A -   "
0.22, 8.256323, 0.000491485, NaN, NaN, NaN, 0.05676616, "- N/A -   "
0.23, 8.610166, 0.000510922, NaN, NaN, NaN, 0.0555454, "- N/A -   "
0.24, 8.846061, 0.000527583, NaN, NaN, NaN, 0.0555454, "- N/A -   "
0.25, 9.081955, 5.470201E-4, NaN, NaN, NaN, 0.0543246, "- N/A -   "
0.26, 9.31785, 0.000569234, NaN, NaN, NaN, 0.0531038, "- N/A -   "
0.27, 9.671693, 0.000588671, NaN, NaN, NaN, 0.05066227, "- N/A -   "
0.28, 9.907588, 0.000608109, NaN, NaN, NaN, 0.0494415, "- N/A -   "
0.29, 10.26143, 0.000627546, NaN, NaN, NaN, 0.0482207, "- N/A -   "
0.3, 10.4973, 6.497599E-4, NaN, NaN, NaN, 0.04577916, "- N/A -   "
0.31, 10.8512, 6.719739E-4, NaN, NaN, NaN, 0.0433376, "- N/A -   "
0.32, 11.0871, 6.914112E-4, NaN, NaN, NaN, 0.04211683, "- N/A -   "
0.33, 11.323, 7.108485E-4, NaN, NaN, NaN, 0.04089605, "- N/A -   "
0.34, 11.5589, 7.27509E-4, NaN, NaN, NaN, 0.04089605, "- N/A -   "
0.35, 11.7947, 0.000746946, NaN, NaN, NaN, 0.0396753, "- N/A -   "
0.36, 12.14859, 0.000763607, NaN, NaN, NaN, 0.0396753, "- N/A -   "
0.37, 12.3845, 0.000783044, NaN, NaN, NaN, 0.0384545, "- N/A -   "
0.38, 12.6204, 7.997045E-4, NaN, NaN, NaN, 0.0384545, "- N/A -   "
0.39, 12.9742, 8.191418E-4, NaN, NaN, NaN, 0.0372337, "- N/A -   "
0.4, 13.2101, 8.38579E-4, NaN, NaN, NaN, 0.03601294, "- N/A -   "
0.409, 13.446, 8.552396E-4, NaN, NaN, NaN, 0.03601294, "- N/A -   "
0.46, 14.7434, 0.000941319, NaN, NaN, NaN, 0.0347922, "- N/A -   "
0.51, 15.805, 0.0010274, NaN, NaN, NaN, 0.0335714, "- N/A -   "
0.56, 17.2203, 0.001119031, NaN, NaN, NaN, 0.0299091, "- N/A -   "
0.61, 18.3998, 0.00120233, NaN, NaN, NaN, 0.0299091, "- N/A -   "
0.66, 19.57928, 0.00128564, NaN, NaN, NaN, 0.0299091, "- N/A -   "
0.71, 20.6408, 0.00136339, NaN, NaN, NaN, 0.0323506, "- N/A -   "
0.76, 21.5844, 0.0014328, NaN, NaN, NaN, 0.0384545, "- N/A -   "
0.81, 22.7639, 0.001505, NaN, NaN, NaN, 0.0433376, "- N/A -   "
0.86, 23.82539, 0.00158553, NaN, NaN, NaN, 0.0445584, "- N/A -   "
0.91, 25.1228, 0.00166883, NaN, NaN, NaN, 0.0445584, "- N/A -   "
0.96, 26.3023, 0.00174935, NaN, NaN, NaN, 0.04577916, "- N/A -   "
1.01, 27.8356, 0.00184376, NaN, NaN, NaN, 0.04089605, "- N/A -   "
1.06, 29.0151, 0.001935396, NaN, NaN, NaN, 0.0372337, "- N/A -   "
1.11, 30.5484, 0.00203258, NaN, NaN, NaN, 0.03112983, "- N/A -   "
1.16, 31.9638, 0.00211866, NaN, NaN, NaN, 0.0299091, "- N/A -   "
1.21, 33.2612, 0.002204741, NaN, NaN, NaN, 0.0286883, "- N/A -   "
1.26, 34.55861, 0.00228249, NaN, NaN, NaN, 0.03112983, "- N/A -   "
1.31, 35.85603, 0.00235746, NaN, NaN, NaN, 0.0347922, "- N/A -   "
1.36, 36.9176, 0.00243243, NaN, NaN, NaN, 0.0384545, "- N/A -   "
1.41, 38.4509, 0.00251574, NaN, NaN, NaN, 0.0384545, "- N/A -   "
1.46, 39.7483, 0.00259349, NaN, NaN, NaN, 0.04089605, "- N/A -   "
1.51, 41.04572, 0.00267401, NaN, NaN, NaN, 0.04211683, "- N/A -   "
1.56, 42.3431, 0.00275454, NaN, NaN, NaN, 0.0433376, "- N/A -   "
1.61, 43.75851, 0.00283229, NaN, NaN, NaN, 0.04577916, "- N/A -   "
1.66, 45.29183, 0.0029267, NaN, NaN, NaN, 0.04089605, "- N/A -   "
1.71, 47.061, 0.003029436, NaN, NaN, NaN, 0.0323506, "- N/A -   "
1.76, 48.7123, 0.00311829, NaN, NaN, NaN, 0.0299091, "- N/A -   "
1.81, 50.1277, 0.003198818, NaN, NaN, NaN, 0.03112983, "- N/A -   "
1.86, 51.4251, 0.003271014, NaN, NaN, NaN, 0.03601294, "- N/A -   "
1.91, 52.84047, 0.00334876, NaN, NaN, NaN, 0.0384545, "- N/A -   "
1.96, 54.6097, 0.003437619, NaN, NaN, NaN, 0.03601294, "- N/A -   "
2.01, 56.2609, 0.00352925, NaN, NaN, NaN, 0.0323506, "- N/A -   "
2.06, 57.91221, 0.00361255, NaN, NaN, NaN, 0.0323506, "- N/A -   "
2.11, 59.3276, 0.00368753, NaN, NaN, NaN, 0.03601294, "- N/A -   "
2.16, 60.7429, 0.0037625, NaN, NaN, NaN, 0.0396753, "- N/A -   "
2.21, 62.2763, 0.0038458, NaN, NaN, NaN, 0.0396753, "- N/A -   "
2.26, 63.80958, 0.00392633, NaN, NaN, NaN, 0.04089605, "- N/A -   "
2.31, 65.5788, 0.00400963, NaN, NaN, NaN, 0.04089605, "- N/A -   "
2.36, 67.34801, 0.00410126, NaN, NaN, NaN, 0.0372337, "- N/A -   "
2.41, 69.23517, 0.00419012, NaN, NaN, NaN, 0.0347922, "- N/A -   "
2.46, 70.7685, 0.00427064, NaN, NaN, NaN, 0.03601294, "- N/A -   "
2.51, 72.3018, 0.004353947, NaN, NaN, NaN, 0.03601294, "- N/A -   "
2.56, 74.189, 0.004442803, NaN, NaN, NaN, 0.0335714, "- N/A -   "
2.61, 75.8402, 0.00452611, NaN, NaN, NaN, 0.0335714, "- N/A -   "
2.66, 77.49149, 0.004609408, NaN, NaN, NaN, 0.0335714, "- N/A -   "
2.71, 79.14275, 0.00468993, NaN, NaN, NaN, 0.0347922, "- N/A -   "
2.76, 80.912, 0.004776013, NaN, NaN, NaN, 0.0347922, "- N/A -   "
2.81, 82.68118, 0.004856539, NaN, NaN, NaN, 0.0347922, "- N/A -   "
2.86, 84.09654, 0.004934288, NaN, NaN, NaN, 0.0372337, "- N/A -   "
2.91, 85.86576, 0.005012037, NaN, NaN, NaN, 0.0396753, "- N/A -   "
2.96, 87.39908, 0.005092563, NaN, NaN, NaN, 0.04089605, "- N/A -   "
3.01, 89.16828, 0.005173089, NaN, NaN, NaN, 0.04211683, "- N/A -   "
3.06, 90.9375, 0.00525917, NaN, NaN, NaN, 0.04089605, "- N/A -   "
3.11, 92.94261, 0.005350801, NaN, NaN, NaN, 0.0372337, "- N/A -   "
3.16, 94.8298, 0.00544521, NaN, NaN, NaN, 0.0323506, "- N/A -   "
3.21, 96.599, 0.00552851, NaN, NaN, NaN, 0.0323506, "- N/A -   "
3.26, 98.13229, 0.00560626, NaN, NaN, NaN, 0.0347922, "- N/A -   "
3.31, 99.9015, 0.00568956, NaN, NaN, NaN, 0.0347922, "- N/A -   "
3.36, 101.789, 0.00578397, NaN, NaN, NaN, 0.03112983, "- N/A -   "
3.41, 103.558, 0.005867277, NaN, NaN, NaN, 0.0299091, "- N/A -   "
3.46, 105.209, 0.0059478, NaN, NaN, NaN, 0.03112983, "- N/A -   "
3.51, 106.625, 0.006019998, NaN, NaN, NaN, 0.03601294, "- N/A -   "
3.56, 108.04, 0.00609219, NaN, NaN, NaN, 0.04211683, "- N/A -   "
3.61, 109.5732, 0.00616994, NaN, NaN, NaN, 0.0445584, "- N/A -   "
3.66, 111.224, 0.006244915, NaN, NaN, NaN, 0.0482207, "- N/A -   "
[...]
18.09, 624.447, 0.0303138, NaN, NaN, NaN, 0.0396753, "- N/A -   "
18.21, 630.3615, 0.0305443, NaN, NaN, NaN, 0.0262467, "- N/A -   "
18.33, 634.8562, 0.0307275, NaN, NaN, NaN, 0.0335714, "- N/A -   "
18.45, 640.061, 0.0309219, NaN, NaN, NaN, 0.03601294, "- N/A -   "
18.57, 644.5552, 0.0311052, NaN, NaN, NaN, 0.0433376, "- N/A -   "
18.69, 649.523, 0.03129677, NaN, NaN, NaN, 0.04699994, "- N/A -   "
18.81, 655.7919, 0.0315328, NaN, NaN, NaN, 0.0323506, "- N/A -   "
18.93, 660.5231, 0.03172717, NaN, NaN, NaN, 0.0335714, "- N/A -   "
19.05, 665.7274, 0.0319271, NaN, NaN, NaN, 0.0335714, "- N/A -   "
19.17, 670.695, 0.03211869, NaN, NaN, NaN, 0.0372337, "- N/A -   "
19.29, 675.663, 0.0323103, NaN, NaN, NaN, 0.04089605, "- N/A -   "
19.41, 680.8674, 0.0325158, NaN, NaN, NaN, 0.0384545, "- N/A -   "
19.53, 686.0717, 0.0327212, NaN, NaN, NaN, 0.03601294, "- N/A -   "
19.65, 691.7492, 0.0329323, NaN, NaN, NaN, 0.03112983, "- N/A -   "
19.77, 696.954, 0.0331322, NaN, NaN, NaN, 0.03112983, "- N/A -   "
19.89, 701.8031, 0.0333266, NaN, NaN, NaN, 0.0335714, "- N/A -   "
20.01, 706.4161, 0.0335071, NaN, NaN, NaN, 0.04211683, "- N/A -   "
20.13, 711.502, 0.0337042, NaN, NaN, NaN, 0.0433376, "- N/A -   "
20.25, 717.6527, 0.0339319, NaN, NaN, NaN, 0.03112983, "- N/A -   "
20.37, 722.502, 0.0341235, NaN, NaN, NaN, 0.0347922, "- N/A -   "
20.49, 728.0614, 0.0343373, NaN, NaN, NaN, 0.0286883, "- N/A -   "
20.61, 732.2013, 0.0345011, NaN, NaN, NaN, 0.0445584, "- N/A -   "
20.73, 737.406, 0.03469829, NaN, NaN, NaN, 0.04577916, "- N/A -   "
20.85, 743.32, 0.03492043, NaN, NaN, NaN, 0.03601294, "- N/A -   "
20.97, 748.761, 0.0351315, NaN, NaN, NaN, 0.03112983, "- N/A -   "
21.09, 754.2015, 0.03533972, NaN, NaN, NaN, 0.0274675, "- N/A -   "
21.21, 758.814, 0.03552021, NaN, NaN, NaN, 0.03601294, "- N/A -   "
21.33, 763.7823, 0.0357035, NaN, NaN, NaN, 0.0433376, "- N/A -   "
21.45, 768.868, 0.0359006, NaN, NaN, NaN, 0.0445584, "- N/A -   "
21.57, 775.0189, 0.0361311, NaN, NaN, NaN, 0.03112983, "- N/A -   "
21.69, 780.105, 0.0363282, NaN, NaN, NaN, 0.0335714, "- N/A -   "
21.81, 785.0728, 0.0365171, NaN, NaN, NaN, 0.0384545, "- N/A -   "
21.93, 790.395, 0.0367198, NaN, NaN, NaN, 0.0372337, "- N/A -   "
22.05, 795.1267, 0.0369003, NaN, NaN, NaN, 0.04577916, "- N/A -   "
22.17, 801.396, 0.03713073, NaN, NaN, NaN, 0.0335714, "- N/A -   "
22.29, 806.7182, 0.03733343, NaN, NaN, NaN, 0.03112983, "- N/A -   "
22.41, 811.686, 0.03752225, NaN, NaN, NaN, 0.03601294, "- N/A -   "
22.53, 817.1269, 0.03772773, NaN, NaN, NaN, 0.0335714, "- N/A -   "
22.65, 821.74, 0.0379082, NaN, NaN, NaN, 0.04211683, "- N/A -   "
22.77, 827.0625, 0.0381081, NaN, NaN, NaN, 0.04211683, "- N/A -   "
22.89, 832.74, 0.0383192, NaN, NaN, NaN, 0.0372337, "- N/A -   "
23.01, 838.0626, 0.0385247, NaN, NaN, NaN, 0.0347922, "- N/A -   "
23.13, 843.267, 0.0387246, NaN, NaN, NaN, 0.0347922, "- N/A -   "
23.25, 848.5896, 0.0389245, NaN, NaN, NaN, 0.0347922, "- N/A -   "
23.37, 853.5574, 0.0391133, NaN, NaN, NaN, 0.0396753, "- N/A -   "
23.49, 858.6435, 0.03930492, NaN, NaN, NaN, 0.0433376, "- N/A -   "
23.61, 864.7941, 0.0395354, NaN, NaN, NaN, 0.03112983, "- N/A -   "
23.73, 869.8802, 0.039727, NaN, NaN, NaN, 0.0335714, "- N/A -   "
23.85, 875.4394, 0.039938, NaN, NaN, NaN, 0.0286883, "- N/A -   "
23.97, 880.289, 0.0401241, NaN, NaN, NaN, 0.0347922, "- N/A -   "
24.09, 884.784, 0.040299, NaN, NaN, NaN, 0.04577916, "- N/A -   "
24.21, 890.579, 0.0405128, NaN, NaN, NaN, 0.0396753, "- N/A -   "
24.33, 896.257, 0.04072384, NaN, NaN, NaN, 0.0347922, "- N/A -   "
24.427, 900.9881, 0.0409016, NaN, NaN, NaN, 0.0286883, "- N/A -   "

File: Hamel_ForceTest_Bolt8_Test5.csv
Time, Load (lb), Position (in), AxialStrain (in), TransverseStrain (in), Auxiliary (), Control Out (V), Stress (psi)
0.0, 1.53332, 0.0, NaN, NaN, NaN, 0.101935, "- N/A -   "
0.01, 2.005107, 3.054427E-5, NaN, NaN, NaN, 0.1092596, "- N/A -   "
0.02, 2.83074, 5.83118e-05, NaN, NaN, NaN, 0.112922, "- N/A -   "
0.03, 3.53842, 8.885606E-5, NaN, NaN, NaN, 0.106818, "- N/A -   "
0.04, 4.010214, 0.0001194, NaN, NaN, NaN, 0.100714, "- N/A -   "
0.05, 4.717899, 1.499446E-4, NaN, NaN, NaN, 0.095831, "- N/A -   "
0.06, 5.425584, 0.000180489, NaN, NaN, NaN, 0.0897272, "- N/A -   "
0.07, 6.13327, 0.000211033, NaN, NaN, NaN, 0.08362327, "- N/A -   "
0.08, 6.84095, 2.415774E-4, NaN, NaN, NaN, 0.07751938, "- N/A -   "
0.09, 7.430691, 0.000269345, NaN, NaN, NaN, 0.07141549, "- N/A -   "
0.1, 8.020428, 0.000294336, NaN, NaN, NaN, 0.06775316, "- N/A -   "
0.11, 8.610166, 3.221032E-4, NaN, NaN, NaN, 0.06287005, "- N/A -   "
0.12, 9.081955, 0.000347094, NaN, NaN, NaN, 0.0592077, "- N/A -   "
0.13, 9.671693, 0.000372085, NaN, NaN, NaN, 0.05676616, "- N/A -   "
0.14, 10.0255, 0.000394299, NaN, NaN, NaN, 0.0531038, "- N/A -   "
0.15, 10.6153, 4.192895E-4, NaN, NaN, NaN, 0.05066227, "- N/A -   "
0.16, 10.9691, 4.387268E-4, NaN, NaN, NaN, 0.0482207, "- N/A -   "
0.17, 11.4409, 4.609408E-4, NaN, NaN, NaN, 0.04699994, "- N/A -   "
0.18, 11.7947, 0.000480378, NaN, NaN, NaN, 0.0445584, "- N/A -   "
0.19, 12.2665, 0.000502592, NaN, NaN, NaN, 0.04211683, "- N/A -   "
0.2, 12.7383, 0.000522029, NaN, NaN, NaN, 0.04211683, "- N/A -   "
0.21, 13.09217, 5.414666E-4, NaN, NaN, NaN, 0.0396753, "- N/A -   "
0.22, 13.564, 0.000560904, NaN, NaN, NaN, 0.0396753, "- N/A -   "
0.23, 13.7999, 0.000580341, NaN, NaN, NaN, 0.0384545, "- N/A -   "
0.24, 14.2716, 0.000597002, NaN, NaN, NaN, 0.0372337, "- N/A -   "
0.25, 14.5075, 6.164389E-4, NaN, NaN, NaN, 0.03601294, "- N/A -   "
0.26, 15.2152, 0.000635876, NaN, NaN, NaN, 0.0347922, "- N/A -   "
0.27, 15.4511, 0.000655313, NaN, NaN, NaN, 0.0335714, "- N/A -   "
0.28, 15.805, 6.747507E-4, NaN, NaN, NaN, 0.0323506, "- N/A -   "
0.29, 16.1588, 0.000694188, NaN, NaN, NaN, 0.0323506, "- N/A -   "
0.3, 16.6306, 7.080717E-4, NaN, NaN, NaN, 0.0323506, "- N/A -   "
0.31, 16.86649, 7.27509E-4, NaN, NaN, NaN, 0.0323506, "- N/A -   "
0.39, 19.3434, 0.000849686, NaN, NaN, NaN, 0.0372337, "- N/A -   "
0.47, 21.5844, 0.000960756, NaN, NaN, NaN, 0.04577916, "- N/A -   "
0.55, 24.29718, 0.00109126, NaN, NaN, NaN, 0.04699994, "- N/A -   "
0.63, 27.3638, 0.001241208, NaN, NaN, NaN, 0.0396753, "- N/A -   "
0.71, 30.3125, 0.00138282, NaN, NaN, NaN, 0.0372337, "- N/A -   "
0.79, 33.02529, 0.00152166, NaN, NaN, NaN, 0.0335714, "- N/A -   "
0.87, 36.0919, 0.00166883, NaN, NaN, NaN, 0.0274675, "- N/A -   "
0.95, 38.68677, 0.00179656, NaN, NaN, NaN, 0.03112983, "- N/A -   "
1.03, 41.16367, 0.00191596, NaN, NaN, NaN, 0.03601294, "- N/A -   "
1.11, 43.5226, 0.00203536, NaN, NaN, NaN, 0.0433376, "- N/A -   "
1.19, 46.3534, 0.00216309, NaN, NaN, NaN, 0.0445584, "- N/A -   "
1.27, 49.0661, 0.002293597, NaN, NaN, NaN, 0.04699994, "- N/A -   "
1.35, 52.1328, 0.002440765, NaN, NaN, NaN, 0.0396753, "- N/A -   "
1.43, 55.43531, 0.002596263, NaN, NaN, NaN, 0.03112983, "- N/A -   "
1.51, 58.384, 0.00272955, NaN, NaN, NaN, 0.0299091, "- N/A -   "
1.59, 60.97884, 0.002854501, NaN, NaN, NaN, 0.0335714, "- N/A -   "
1.67, 63.6916, 0.00297945, NaN, NaN, NaN, 0.0384545, "- N/A -   "
1.75, 66.64032, 0.00311829, NaN, NaN, NaN, 0.0347922, "- N/A -   "
1.83, 69.11722, 0.003234916, NaN, NaN, NaN, 0.04211683, "- N/A -   "
1.91, 71.94796, 0.00336265, NaN, NaN, NaN, 0.0445584, "- N/A -   "
1.99, 75.36844, 0.00351537, NaN, NaN, NaN, 0.0372337, "- N/A -   "
2.07, 78.55301, 0.00366254, NaN, NaN, NaN, 0.03112983, "- N/A -   "
2.15, 81.26581, 0.00379027, NaN, NaN, NaN, 0.0323506, "- N/A -   "
2.23, 83.9786, 0.00391522, NaN, NaN, NaN, 0.03601294, "- N/A -   "
2.31, 87.04523, 0.00405683, NaN, NaN, NaN, 0.0323506, "- N/A -   "
2.39, 89.99392, 0.004187342, NaN, NaN, NaN, 0.0335714, "- N/A -   "
2.47, 92.35287, 0.004306742, NaN, NaN, NaN, 0.04089605, "- N/A -   "
2.55, 95.18361, 0.00443725, NaN, NaN, NaN, 0.04089605, "- N/A -   "
2.63, 98.01435, 0.00457053, NaN, NaN, NaN, 0.04211683, "- N/A -   "
2.71, 101.081, 0.004712148, NaN, NaN, NaN, 0.0372337, "- N/A -   "
2.79, 103.912, 0.00485099, NaN, NaN, NaN, 0.0347922, "- N/A -   "
2.87, 106.742, 0.0049926, NaN, NaN, NaN, 0.0323506, "- N/A -   "
2.95, 109.5732, 0.005128661, NaN, NaN, NaN, 0.0299091, "- N/A -   "
3.03, 111.932, 0.00525084, NaN, NaN, NaN, 0.0347922, "- N/A -   "
3.11, 114.527, 0.005386899, NaN, NaN, NaN, 0.0335714, "- N/A -   "
3.19, 116.768, 0.00550908, NaN, NaN, NaN, 0.0384545, "- N/A -   "
3.27, 119.009, 0.00563403, NaN, NaN, NaN, 0.04211683, "- N/A -   "
3.35, 121.486, 0.00576731, NaN, NaN, NaN, 0.04211683, "- N/A -   "
3.43, 124.199, 0.00592004, NaN, NaN, NaN, 0.0335714, "- N/A -   "
3.51, 126.676, 0.006056096, NaN, NaN, NaN, 0.0323506, "- N/A -   "
3.59, 128.917, 0.0061866, NaN, NaN, NaN, 0.03601294, "- N/A -   "
3.67, 131.629, 0.006330994, NaN, NaN, NaN, 0.0299091, "- N/A -   "
3.75, 133.988, 0.00645872, NaN, NaN, NaN, 0.0323506, "- N/A -   "
3.83, 135.993, 0.00657813, NaN, NaN, NaN, 0.0396753, "- N/A -   "
3.91, 138.116, 0.00669475, NaN, NaN, NaN, 0.04577916, "- N/A -   "
3.99, 140.593, 0.00682803, NaN, NaN, NaN, 0.04577916, "- N/A -   "
4.07, 143.188, 0.00698075, NaN, NaN, NaN, 0.0384545, "- N/A -   "
4.15, 145.901, 0.00712237, NaN, NaN, NaN, 0.0347922, "- N/A -   "
4.23, 148.496, 0.00726398, NaN, NaN, NaN, 0.0299091, "- N/A -   "
4.31, 150.973, 0.00740004, NaN, NaN, NaN, 0.0286883, "- N/A -   "
4.39, 153.096, 0.007524997, NaN, NaN, NaN, 0.0323506, "- N/A -   "
4.47, 155.219, 0.007641621, NaN, NaN, NaN, 0.0396753, "- N/A -   "
4.55, 157.342, 0.007761021, NaN, NaN, NaN, 0.04577916, "- N/A -   "
4.63, 160.055, 0.007902635, NaN, NaN, NaN, 0.0433376, "- N/A -   "
4.71, 162.532, 0.00803592, NaN, NaN, NaN, 0.04211683, "- N/A -   "
4.79, 165.598, 0.008194195, NaN, NaN, NaN, 0.0323506, "- N/A -   "
4.87, 168.193, 0.008333033, NaN, NaN, NaN, 0.0286883, "- N/A -   "
4.95, 170.552, 0.008463539, NaN, NaN, NaN, 0.03112983, "- N/A -   "
5.03, 172.793, 0.008588494, NaN, NaN, NaN, 0.0335714, "- N/A -   "
5.11, 175.152, 0.008716224, NaN, NaN, NaN, 0.0372337, "- N/A -   "
5.19, 177.629, 0.008843956, NaN, NaN, NaN, 0.0384545, "- N/A -   "
5.27, 179.87, 0.008966132, NaN, NaN, NaN, 0.0433376, "- N/A -   "
5.35, 182.465, 0.009096639, NaN, NaN, NaN, 0.0445584, "- N/A -   "
5.43, 185.531, 0.00925214, NaN, NaN, NaN, 0.0347922, "- N/A -   "
5.51, 188.008, 0.009393752, NaN, NaN, NaN, 0.03112983, "- N/A -   "
5.59, 190.603, 0.009524259, NaN, NaN, NaN, 0.0323506, "- N/A -   "
5.67, 192.844, 0.009646436, NaN, NaN, NaN, 0.0372337, "- N/A -   "
5.75, 195.675, 0.00979083, NaN, NaN, NaN, 0.0323506, "- N/A -   "
5.83, 198.034, 0.009913004, NaN, NaN, NaN, 0.0372337, "- N/A -   "
5.91, 200.275, 0.0100324, NaN, NaN, NaN, 0.0433376, "- N/A -   "
5.99, 202.9876, 0.0101712, NaN, NaN, NaN, 0.04089605, "- N/A -   "
6.07, 205.818, 0.0103129, NaN, NaN, NaN, 0.0384545, "- N/A -   "
6.15, 208.531, 0.0104489, NaN, NaN, NaN, 0.03601294, "- N/A -   "
6.23, 211.244, 0.0105878, NaN, NaN, NaN, 0.0335714, "- N/A -   "
6.31, 213.839, 0.0107266, NaN, NaN, NaN, 0.03112983, "- N/A -   "
[...]
26.77, 1048.18, 0.0448279, NaN, NaN, NaN, 0.03112983, "- N/A -   "
26.94, 1055.573, 0.0451056, NaN, NaN, NaN, 0.0335714, "- N/A -   "
27.11, 1062.61, 0.0453721, NaN, NaN, NaN, 0.04089605, "- N/A -   "
27.28, 1070.48, 0.04565813, NaN, NaN, NaN, 0.0396753, "- N/A -   "
27.45, 1078.35, 0.04594969, NaN, NaN, NaN, 0.03601294, "- N/A -   "
27.62, 1086.22, 0.046244, NaN, NaN, NaN, 0.03112983, "- N/A -   "
27.79, 1092.78, 0.0464939, NaN, NaN, NaN, 0.04577916, "- N/A -   "
27.96, 1101.01, 0.0467966, NaN, NaN, NaN, 0.0372337, "- N/A -   "
28.13, 1109.12, 0.0470993, NaN, NaN, NaN, 0.0286883, "- N/A -   "
28.3, 1116.39, 0.0473714, NaN, NaN, NaN, 0.0335714, "- N/A -   "
28.47, 1123.19, 0.0476296, NaN, NaN, NaN, 0.0445584, "- N/A -   "
28.64, 1131.298, 0.04792674, NaN, NaN, NaN, 0.0396753, "- N/A -   "
28.81, 1139.41, 0.04822663, NaN, NaN, NaN, 0.03112983, "- N/A -   "
28.98, 1146.56, 0.048496, NaN, NaN, NaN, 0.0372337, "- N/A -   "
29.15, 1153.72, 0.0487653, NaN, NaN, NaN, 0.0433376, "- N/A -   "
29.32, 1162.3, 0.0490763, NaN, NaN, NaN, 0.03112983, "- N/A -   "
29.49, 1169.46, 0.0493484, NaN, NaN, NaN, 0.03601294, "- N/A -   "
29.66, 1177.33, 0.04964, NaN, NaN, NaN, 0.0323506, "- N/A -   "
29.83, 1184.365, 0.0499038, NaN, NaN, NaN, 0.04089605, "- N/A -   "
30, 1192.24, 0.0501953, NaN, NaN, NaN, 0.0372337, "- N/A -   "
30.17, 1200.11, 0.0504869, NaN, NaN, NaN, 0.0347922, "- N/A -   "
30.34, 1207.74, 0.0507757, NaN, NaN, NaN, 0.0323506, "- N/A -   "
30.51, 1214.77, 0.0510367, NaN, NaN, NaN, 0.04089605, "- N/A -   "
30.68, 1222.41, 0.05132271, NaN, NaN, NaN, 0.04089605, "- N/A -   "
30.85, 1230.52, 0.0516226, NaN, NaN, NaN, 0.0335714, "- N/A -   "
31.02, 1238.39, 0.05191693, NaN, NaN, NaN, 0.0299091, "- N/A -   "
31.19, 1244.83, 0.05216406, NaN, NaN, NaN, 0.04577916, "- N/A -   "
31.36, 1252.82, 0.0524584, NaN, NaN, NaN, 0.0396753, "- N/A -   "
31.53, 1260.81, 0.0527611, NaN, NaN, NaN, 0.03112983, "- N/A -   "
31.7, 1268.32, 0.0530415, NaN, NaN, NaN, 0.0323506, "- N/A -   "
31.87, 1275, 0.05329975, NaN, NaN, NaN, 0.0433376, "- N/A -   "
32.04, 1282.63, 0.0535885, NaN, NaN, NaN, 0.04089605, "- N/A -   "
32.21, 1291.1, 0.0539051, NaN, NaN, NaN, 0.0262467, "- N/A -   "
32.38, 1298.01, 0.0541661, NaN, NaN, NaN, 0.0372337, "- N/A -   "
32.55, 1305.29, 0.05443267, NaN, NaN, NaN, 0.0433376, "- N/A -   "
32.72, 1313.4, 0.0547381, NaN, NaN, NaN, 0.0347922, "- N/A -   "
32.89, 1320.79, 0.0550158, NaN, NaN, NaN, 0.03601294, "- N/A -   "
33.06, 1328.54, 0.0553101, NaN, NaN, NaN, 0.0323506, "- N/A -   "
33.23, 1335.58, 0.05557391, NaN, NaN, NaN, 0.0396753, "- N/A -   "
33.4, 1343.21, 0.05585714, NaN, NaN, NaN, 0.0396753, "- N/A -   "
33.57, 1351.2, 0.0561598, NaN, NaN, NaN, 0.03112983, "- N/A -   "
33.74, 1358.71, 0.05644026, NaN, NaN, NaN, 0.0323506, "- N/A -   "
33.91, 1365.51, 0.05670405, NaN, NaN, NaN, 0.04089605, "- N/A -   "
34.08, 1373.141, 0.0569845, NaN, NaN, NaN, 0.04211683, "- N/A -   "
34.25, 1381.01, 0.0572844, NaN, NaN, NaN, 0.0347922, "- N/A -   "
34.42, 1389.12, 0.0575815, NaN, NaN, NaN, 0.0286883, "- N/A -   "
34.59, 1395.44, 0.05783419, NaN, NaN, NaN, 0.0433376, "- N/A -   "
34.76, 1403.31, 0.0581202, NaN, NaN, NaN, 0.04089605, "- N/A -   "
34.93, 1411.66, 0.058434, NaN, NaN, NaN, 0.0274675, "- N/A -   "
35.1, 1418.81, 0.0587089, NaN, NaN, NaN, 0.03112983, "- N/A -   "
35.27, 1425.37, 0.05896155, NaN, NaN, NaN, 0.04699994, "- N/A -   "
35.44, 1433.36, 0.0592559, NaN, NaN, NaN, 0.04089605, "- N/A -   "
35.61, 1441.59, 0.0595641, NaN, NaN, NaN, 0.0299091, "- N/A -   "
35.78, 1448.63, 0.0598307, NaN, NaN, NaN, 0.0372337, "- N/A -   "
35.829, 1450.774, 0.059914, NaN, NaN, NaN, 0.03601294, "- N/A -   "