Folder: DigitalTwins-Machine-Learning/2_Tensile_Data (part 5)

File: Hamel_ForceTest_Bolt3_Test7.csv
Time, Load (lb), Position (in), AxialStrain (in), TransverseStrain (in), Auxiliary (), Control Out (V), Stress (psi)
0.0, 11.6768, 0.0, NaN, NaN, NaN, -0.006714277, "- N/A -   "
0.01, 11.7947, 2.776752E-6, NaN, NaN, NaN, -6.103888E-4, "- N/A -   "
0.02, 11.6768, 2.776752E-6, NaN, NaN, NaN, 0.006714277, "- N/A -   "
0.03, 11.7947, 5.553504E-6, NaN, NaN, NaN, 0.0164805, "- N/A -   "
0.04, 11.7947, 8.330256E-6, NaN, NaN, NaN, 0.0347922, "- N/A -   "
0.05, 11.7947, 1.38838e-05, NaN, NaN, NaN, 0.05188305, "- N/A -   "
0.06, 12.0306, 2.77675e-05, NaN, NaN, NaN, 0.0653116, "- N/A -   "
0.07, 12.3845, 4.442803E-5, NaN, NaN, NaN, 0.07751938, "- N/A -   "
0.08, 12.6204, 6.6642e-05, NaN, NaN, NaN, 0.08850638, "- N/A -   "
0.09, 12.9742, 9.16328e-05, NaN, NaN, NaN, 0.095831, "- N/A -   "
0.1, 13.446, 0.000122177, NaN, NaN, NaN, 0.101935, "- N/A -   "
0.11, 13.7999, 0.000152721, NaN, NaN, NaN, 0.09949338, "- N/A -   "
0.12, 14.2716, 0.000183266, NaN, NaN, NaN, 0.09461027, "- N/A -   "
0.13, 14.6255, 0.000211033, NaN, NaN, NaN, 0.0897272, "- N/A -   "
0.14, 14.9793, 2.360239E-4, NaN, NaN, NaN, 0.08606482, "- N/A -   "
0.15, 15.3332, 2.582379E-4, NaN, NaN, NaN, 0.08240249, "- N/A -   "
0.16, 15.5691, 2.832287E-4, NaN, NaN, NaN, 0.07874016, "- N/A -   "
0.17, 15.9229, 3.054427E-4, NaN, NaN, NaN, 0.0762986, "- N/A -   "
0.18, 16.3947, 0.000327657, NaN, NaN, NaN, 0.07385705, "- N/A -   "
0.19, 16.5126, 0.000349871, NaN, NaN, NaN, 0.07141549, "- N/A -   "
0.2, 16.86649, 3.69308E-4, NaN, NaN, NaN, 0.0701947, "- N/A -   "
0.21, 17.1024, 0.000388745, NaN, NaN, NaN, 0.0689739, "- N/A -   "
0.22, 17.3383, 0.000410959, NaN, NaN, NaN, 0.06775316, "- N/A -   "
0.23, 17.6921, 0.000430397, NaN, NaN, NaN, 0.06653238, "- N/A -   "
0.24, 18.046, 0.000452611, NaN, NaN, NaN, 0.0640908, "- N/A -   "
0.25, 18.2819, 0.000469271, NaN, NaN, NaN, 0.06287005, "- N/A -   "
0.26, 18.5178, 4.887083E-4, NaN, NaN, NaN, 0.06164927, "- N/A -   "
0.27, 18.8716, 0.000510922, NaN, NaN, NaN, 0.0604285, "- N/A -   "
0.28, 19.1075, 0.00053036, NaN, NaN, NaN, 0.0579869, "- N/A -   "
0.29, 19.3434, 0.000549797, NaN, NaN, NaN, 0.05676616, "- N/A -   "
0.3, 19.8152, 5.720109E-4, NaN, NaN, NaN, 0.0543246, "- N/A -   "
0.31, 20.05107, 5.942249E-4, NaN, NaN, NaN, 0.05188305, "- N/A -   "
0.32, 20.4049, 0.000619216, NaN, NaN, NaN, 0.0494415, "- N/A -   "
0.33, 20.6408, 0.000638653, NaN, NaN, NaN, 0.0482207, "- N/A -   "
0.34, 20.99465, 6.608669E-4, NaN, NaN, NaN, 0.04577916, "- N/A -   "
0.35, 21.2305, 6.803042E-4, NaN, NaN, NaN, 0.0433376, "- N/A -   "
0.36, 21.5844, 7.025182E-4, NaN, NaN, NaN, 0.04211683, "- N/A -   "
0.37, 21.8203, 7.191787E-4, NaN, NaN, NaN, 0.04089605, "- N/A -   "
0.38, 22.0562, 7.38616E-4, NaN, NaN, NaN, 0.0396753, "- N/A -   "
0.39, 22.41, 0.000758053, NaN, NaN, NaN, 0.0396753, "- N/A -   "
0.43, 23.4715, 8.302488E-4, NaN, NaN, NaN, 0.0372337, "- N/A -   "
0.47, 24.4151, 8.968908E-4, NaN, NaN, NaN, 0.03601294, "- N/A -   "
0.51, 25.4767, 9.663096E-4, NaN, NaN, NaN, 0.0347922, "- N/A -   "
0.55, 26.5382, 0.00104406, NaN, NaN, NaN, 0.03112983, "- N/A -   "
0.59, 27.5997, 0.00111348, NaN, NaN, NaN, 0.0299091, "- N/A -   "
0.63, 28.54329, 0.00118012, NaN, NaN, NaN, 0.0299091, "- N/A -   "
0.67, 29.3689, 0.00123843, NaN, NaN, NaN, 0.0323506, "- N/A -   "
0.71, 30.1946, 0.00129119, NaN, NaN, NaN, 0.0384545, "- N/A -   "
0.75, 31.1381, 0.00134672, NaN, NaN, NaN, 0.0433376, "- N/A -   "
0.79, 31.9638, 0.00140781, NaN, NaN, NaN, 0.04577916, "- N/A -   "
0.83, 32.9073, 0.00147168, NaN, NaN, NaN, 0.04699994, "- N/A -   "
0.87, 33.8509, 0.00153832, NaN, NaN, NaN, 0.04699994, "- N/A -   "
0.91, 35.0304, 0.00161607, NaN, NaN, NaN, 0.04211683, "- N/A -   "
0.95, 36.0919, 0.00169382, NaN, NaN, NaN, 0.0384545, "- N/A -   "
0.99, 37.2714, 0.00176601, NaN, NaN, NaN, 0.03601294, "- N/A -   "
1.03, 38.215, 0.00183266, NaN, NaN, NaN, 0.03601294, "- N/A -   "
1.07, 39.15856, 0.0018993, NaN, NaN, NaN, 0.03601294, "- N/A -   "
1.11, 40.22009, 0.00197427, NaN, NaN, NaN, 0.03112983, "- N/A -   "
1.15, 41.39956, 0.00205202, NaN, NaN, NaN, 0.0262467, "- N/A -   "
1.19, 42.3431, 0.00211866, NaN, NaN, NaN, 0.0274675, "- N/A -   "
1.23, 43.2867, 0.00217975, NaN, NaN, NaN, 0.0286883, "- N/A -   "
1.27, 44.2303, 0.00224084, NaN, NaN, NaN, 0.0323506, "- N/A -   "
1.31, 45.17388, 0.00230193, NaN, NaN, NaN, 0.0335714, "- N/A -   "
1.35, 45.8816, 0.00235746, NaN, NaN, NaN, 0.0384545, "- N/A -   "
1.39, 46.9431, 0.00241855, NaN, NaN, NaN, 0.04089605, "- N/A -   "
1.43, 47.8867, 0.00247964, NaN, NaN, NaN, 0.0433376, "- N/A -   "
1.47, 48.83025, 0.0025435, NaN, NaN, NaN, 0.04577916, "- N/A -   "
1.51, 50.0097, 0.00261292, NaN, NaN, NaN, 0.0433376, "- N/A -   "
1.55, 51.0713, 0.00267679, NaN, NaN, NaN, 0.0445584, "- N/A -   "
1.59, 52.1328, 0.00274621, NaN, NaN, NaN, 0.0445584, "- N/A -   "
1.63, 53.19431, 0.00281563, NaN, NaN, NaN, 0.04211683, "- N/A -   "
1.67, 54.6097, 0.00289338, NaN, NaN, NaN, 0.0372337, "- N/A -   "
1.71, 55.9071, 0.002973901, NaN, NaN, NaN, 0.0323506, "- N/A -   "
1.75, 56.9686, 0.003040543, NaN, NaN, NaN, 0.03112983, "- N/A -   "
1.79, 58.1481, 0.003112739, NaN, NaN, NaN, 0.0299091, "- N/A -   "
1.83, 59.2096, 0.003179381, NaN, NaN, NaN, 0.0286883, "- N/A -   "
1.87, 60.5071, 0.003243246, NaN, NaN, NaN, 0.0299091, "- N/A -   "
1.91, 61.45063, 0.003301558, NaN, NaN, NaN, 0.0335714, "- N/A -   "
1.95, 62.5122, 0.00336542, NaN, NaN, NaN, 0.03601294, "- N/A -   "
1.99, 63.6916, 0.00342929, NaN, NaN, NaN, 0.03601294, "- N/A -   "
2.03, 64.87111, 0.00349593, NaN, NaN, NaN, 0.03601294, "- N/A -   "
2.07, 65.93263, 0.0035598, NaN, NaN, NaN, 0.0372337, "- N/A -   "
2.11, 66.99416, 0.00361811, NaN, NaN, NaN, 0.04089605, "- N/A -   "
2.15, 67.9377, 0.0036792, NaN, NaN, NaN, 0.0433376, "- N/A -   "
2.19, 69.11722, 0.00374306, NaN, NaN, NaN, 0.0445584, "- N/A -   "
2.23, 70.29669, 0.00381248, NaN, NaN, NaN, 0.0433376, "- N/A -   "
2.27, 71.71206, 0.00389023, NaN, NaN, NaN, 0.0384545, "- N/A -   "
2.31, 73.00948, 0.003965202, NaN, NaN, NaN, 0.0347922, "- N/A -   "
2.35, 74.42485, 0.00404295, NaN, NaN, NaN, 0.03112983, "- N/A -   "
2.39, 75.7223, 0.00411237, NaN, NaN, NaN, 0.0299091, "- N/A -   "
2.43, 76.6659, 0.00417346, NaN, NaN, NaN, 0.03112983, "- N/A -   "
2.47, 77.72738, 0.00423177, NaN, NaN, NaN, 0.03601294, "- N/A -   "
2.51, 78.90686, 0.004295635, NaN, NaN, NaN, 0.03601294, "- N/A -   "
2.55, 80.32223, 0.00436783, NaN, NaN, NaN, 0.0335714, "- N/A -   "
2.59, 81.61965, 0.00443725, NaN, NaN, NaN, 0.0323506, "- N/A -   "
2.63, 82.68118, 0.004503892, NaN, NaN, NaN, 0.0323506, "- N/A -   "
2.67, 83.86065, 0.00456498, NaN, NaN, NaN, 0.0347922, "- N/A -   "
2.71, 85.04012, 0.004628845, NaN, NaN, NaN, 0.03601294, "- N/A -   "
2.75, 86.1017, 0.00468993, NaN, NaN, NaN, 0.0384545, "- N/A -   "
2.79, 87.28113, 0.004751022, NaN, NaN, NaN, 0.04089605, "- N/A -   "
2.83, 88.57855, 0.004823218, NaN, NaN, NaN, 0.0396753, "- N/A -   "
2.87, 89.87598, 0.00489541, NaN, NaN, NaN, 0.03601294, "- N/A -   "
2.91, 90.9375, 0.004956502, NaN, NaN, NaN, 0.0396753, "- N/A -   "
2.95, 92.23492, 0.00502037, NaN, NaN, NaN, 0.04089605, "- N/A -   "
2.99, 93.65029, 0.00508979, NaN, NaN, NaN, 0.0384545, "- N/A -   "
3.03, 94.8298, 0.00515921, NaN, NaN, NaN, 0.0372337, "- N/A -   "
3.07, 96.24514, 0.005228624, NaN, NaN, NaN, 0.03601294, "- N/A -   "
[...]
28.3, 1026.714, 0.0472853, NaN, NaN, NaN, 0.0335714, "- N/A -   "
28.49, 1035.06, 0.04761574, NaN, NaN, NaN, 0.0286883, "- N/A -   "
28.68, 1042.22, 0.04789897, NaN, NaN, NaN, 0.04211683, "- N/A -   "
28.87, 1050.33, 0.04821274, NaN, NaN, NaN, 0.0433376, "- N/A -   "
29.06, 1059.27, 0.0485626, NaN, NaN, NaN, 0.0299091, "- N/A -   "
29.25, 1067.14, 0.0488653, NaN, NaN, NaN, 0.0347922, "- N/A -   "
29.44, 1074.77, 0.04916239, NaN, NaN, NaN, 0.0433376, "- N/A -   "
29.63, 1083.84, 0.0495095, NaN, NaN, NaN, 0.0299091, "- N/A -   "
29.82, 1091.47, 0.04981215, NaN, NaN, NaN, 0.0372337, "- N/A -   "
30.01, 1099.82, 0.0501343, NaN, NaN, NaN, 0.0335714, "- N/A -   "
30.2, 1107.57, 0.0504397, NaN, NaN, NaN, 0.0384545, "- N/A -   "
30.39, 1115.8, 0.0507562, NaN, NaN, NaN, 0.0384545, "- N/A -   "
30.58, 1124.38, 0.05108668, NaN, NaN, NaN, 0.0323506, "- N/A -   "
30.77, 1132.25, 0.0513949, NaN, NaN, NaN, 0.0372337, "- N/A -   "
30.96, 1140.12, 0.0516976, NaN, NaN, NaN, 0.0433376, "- N/A -   "
31.15, 1149.07, 0.0520419, NaN, NaN, NaN, 0.0323506, "- N/A -   "
31.34, 1157.18, 0.0523584, NaN, NaN, NaN, 0.0323506, "- N/A -   "
31.53, 1164.21, 0.0526389, NaN, NaN, NaN, 0.04699994, "- N/A -   "
31.72, 1172.92, 0.0529749, NaN, NaN, NaN, 0.0384545, "- N/A -   "
31.91, 1181.62, 0.0533136, NaN, NaN, NaN, 0.0299091, "- N/A -   "
32.1, 1189.016, 0.0536052, NaN, NaN, NaN, 0.0396753, "- N/A -   "
32.29, 1196.89, 0.05391341, NaN, NaN, NaN, 0.0433376, "- N/A -   "
32.48, 1206.19, 0.05426606, NaN, NaN, NaN, 0.0274675, "- N/A -   "
32.67, 1213.701, 0.0545632, NaN, NaN, NaN, 0.03601294, "- N/A -   "
32.86, 1221.45, 0.05486306, NaN, NaN, NaN, 0.0445584, "- N/A -   "
33.05, 1230.4, 0.05520183, NaN, NaN, NaN, 0.0335714, "- N/A -   "
33.24, 1238.267, 0.05551282, NaN, NaN, NaN, 0.0372337, "- N/A -   "
33.43, 1246.61, 0.0558321, NaN, NaN, NaN, 0.03601294, "- N/A -   "
33.62, 1254.49, 0.0561404, NaN, NaN, NaN, 0.0396753, "- N/A -   "
33.81, 1263.07, 0.05646525, NaN, NaN, NaN, 0.0347922, "- N/A -   "
34, 1271.3, 0.0567846, NaN, NaN, NaN, 0.0347922, "- N/A -   "
34.19, 1279.17, 0.0570928, NaN, NaN, NaN, 0.0372337, "- N/A -   "
34.38, 1287.041, 0.0573982, NaN, NaN, NaN, 0.04211683, "- N/A -   "
34.57, 1295.75, 0.05773422, NaN, NaN, NaN, 0.0347922, "- N/A -   "
34.76, 1304.45, 0.0580619, NaN, NaN, NaN, 0.0286883, "- N/A -   "
34.95, 1311.37, 0.0583423, NaN, NaN, NaN, 0.04577916, "- N/A -   "
35.14, 1320.67, 0.05868665, NaN, NaN, NaN, 0.0323506, "- N/A -   "
35.33, 1329.02, 0.0590115, NaN, NaN, NaN, 0.03112983, "- N/A -   "
35.52, 1336.29, 0.05929753, NaN, NaN, NaN, 0.0433376, "- N/A -   "
35.71, 1344.64, 0.05961409, NaN, NaN, NaN, 0.0445584, "- N/A -   "
35.9, 1353.82, 0.059964, NaN, NaN, NaN, 0.0286883, "- N/A -   "
36.09, 1361.45, 0.06025829, NaN, NaN, NaN, 0.0384545, "- N/A -   "
36.28, 1369.32, 0.060561, NaN, NaN, NaN, 0.0445584, "- N/A -   "
36.47, 1378.51, 0.0609081, NaN, NaN, NaN, 0.03112983, "- N/A -   "
36.66, 1386.38, 0.0612135, NaN, NaN, NaN, 0.03601294, "- N/A -   "
36.85, 1394.487, 0.06152449, NaN, NaN, NaN, 0.0384545, "- N/A -   "
37.04, 1402.48, 0.06183549, NaN, NaN, NaN, 0.04089605, "- N/A -   "
37.23, 1411.06, 0.06216592, NaN, NaN, NaN, 0.0347922, "- N/A -   "
37.42, 1419.41, 0.0624852, NaN, NaN, NaN, 0.0335714, "- N/A -   "
37.61, 1427.162, 0.06279069, NaN, NaN, NaN, 0.0396753, "- N/A -   "
37.8, 1435.27, 0.06310446, NaN, NaN, NaN, 0.0396753, "- N/A -   "
37.99, 1443.86, 0.0634349, NaN, NaN, NaN, 0.0335714, "- N/A -   "
38.18, 1451.97, 0.063757, NaN, NaN, NaN, 0.0323506, "- N/A -   "
38.37, 1459, 0.06403468, NaN, NaN, NaN, 0.0482207, "- N/A -   "
38.39, 1459.84, 0.064068, NaN, NaN, NaN, 0.0494415, "- N/A -   "

File: Hamel_ForceTest_Bolt3_Test8.csv
Time, Load (lb), Position (in), AxialStrain (in), TransverseStrain (in), Auxiliary (), Control Out (V), Stress (psi)
0.0, 9.907588, 0.0, NaN, NaN, NaN, -0.007935055, "- N/A -   "
0.01, 9.907588, -2.776752E-6, NaN, NaN, NaN, 0.00427272, "- N/A -   "
0.02, 9.907588, 0.0, NaN, NaN, NaN, 0.0225844, "- N/A -   "
0.03, 10.0255, 2.776752E-6, NaN, NaN, NaN, 0.04089605, "- N/A -   "
0.04, 10.1435, 1.38838e-05, NaN, NaN, NaN, 0.05676616, "- N/A -   "
0.05, 10.3794, 2.77675e-05, NaN, NaN, NaN, 0.0689739, "- N/A -   "
0.06, 10.73322, 4.720478E-5, NaN, NaN, NaN, 0.0799609, "- N/A -   "
0.07, 10.9691, 6.94188E-5, NaN, NaN, NaN, 0.0897272, "- N/A -   "
0.08, 11.4409, 9.718631E-5, NaN, NaN, NaN, 0.0982726, "- N/A -   "
0.09, 11.9127, 0.000124954, NaN, NaN, NaN, 0.104376, "- N/A -   "
0.1, 12.5024, 0.000158275, NaN, NaN, NaN, 0.103156, "- N/A -   "
0.11, 13.09217, 0.000188819, NaN, NaN, NaN, 0.09705182, "- N/A -   "
0.12, 13.564, 2.193634E-4, NaN, NaN, NaN, 0.09094793, "- N/A -   "
0.13, 14.0357, 0.000249908, NaN, NaN, NaN, 0.08606482, "- N/A -   "
0.14, 14.3896, 2.776752E-4, NaN, NaN, NaN, 0.08118171, "- N/A -   "
0.15, 14.8614, 0.000302666, NaN, NaN, NaN, 0.0762986, "- N/A -   "
0.16, 15.3332, 0.000330433, NaN, NaN, NaN, 0.07263627, "- N/A -   "
0.17, 15.805, 0.000355424, NaN, NaN, NaN, 0.06775316, "- N/A -   "
0.18, 16.1588, 0.000383192, NaN, NaN, NaN, 0.0640908, "- N/A -   "
0.19, 16.6306, 0.000405406, NaN, NaN, NaN, 0.0604285, "- N/A -   "
0.2, 16.9844, 0.000430397, NaN, NaN, NaN, 0.0579869, "- N/A -   "
0.21, 17.3383, 0.000449834, NaN, NaN, NaN, 0.0555454, "- N/A -   "
0.22, 17.6921, 4.720478E-4, NaN, NaN, NaN, 0.0531038, "- N/A -   "
0.23, 17.928, 0.000491485, NaN, NaN, NaN, 0.0531038, "- N/A -   "
0.24, 18.16391, 0.000510922, NaN, NaN, NaN, 0.05188305, "- N/A -   "
0.25, 18.5178, 0.000527583, NaN, NaN, NaN, 0.05066227, "- N/A -   "
0.26, 18.7536, 5.442434E-4, NaN, NaN, NaN, 0.05066227, "- N/A -   "
0.27, 18.9895, 5.636806E-4, NaN, NaN, NaN, 0.0494415, "- N/A -   "
0.28, 19.3434, 5.831179E-4, NaN, NaN, NaN, 0.0494415, "- N/A -   "
0.29, 19.57928, 5.997784E-4, NaN, NaN, NaN, 0.0494415, "- N/A -   "
0.3, 19.8152, 6.136621E-4, NaN, NaN, NaN, 0.0494415, "- N/A -   "
0.31, 20.169, 0.000630323, NaN, NaN, NaN, 0.0494415, "- N/A -   "
0.32, 20.287, 6.497599E-4, NaN, NaN, NaN, 0.0494415, "- N/A -   "
0.33, 20.52286, 0.00066642, NaN, NaN, NaN, 0.0494415, "- N/A -   "
0.38, 22.0562, 0.000758053, NaN, NaN, NaN, 0.04577916, "- N/A -   "
0.43, 23.3536, 8.413558E-4, NaN, NaN, NaN, 0.0445584, "- N/A -   "
0.48, 24.769, 9.329886E-4, NaN, NaN, NaN, 0.04089605, "- N/A -   "
0.53, 26.0664, 0.00102462, NaN, NaN, NaN, 0.0384545, "- N/A -   "
0.58, 27.3638, 0.00110792, NaN, NaN, NaN, 0.0372337, "- N/A -   "
0.63, 28.6612, 0.001194, NaN, NaN, NaN, 0.03601294, "- N/A -   "
0.68, 29.9587, 0.00127731, NaN, NaN, NaN, 0.03601294, "- N/A -   "
0.73, 31.2561, 0.00136616, NaN, NaN, NaN, 0.0347922, "- N/A -   "
0.78, 32.67145, 0.00144669, NaN, NaN, NaN, 0.0347922, "- N/A -   "
0.83, 33.73298, 0.00152999, NaN, NaN, NaN, 0.0347922, "- N/A -   "
0.88, 35.1483, 0.00161052, NaN, NaN, NaN, 0.03601294, "- N/A -   "
0.93, 36.44577, 0.00169937, NaN, NaN, NaN, 0.0347922, "- N/A -   "
0.98, 37.6252, 0.00177712, NaN, NaN, NaN, 0.03601294, "- N/A -   "
1.03, 38.8047, 0.00185209, NaN, NaN, NaN, 0.0396753, "- N/A -   "
1.08, 40.10214, 0.00193262, NaN, NaN, NaN, 0.04089605, "- N/A -   "
1.13, 41.2816, 0.00200759, NaN, NaN, NaN, 0.04577916, "- N/A -   "
1.18, 42.579, 0.00209089, NaN, NaN, NaN, 0.0445584, "- N/A -   "
1.23, 44.34825, 0.0021853, NaN, NaN, NaN, 0.0396753, "- N/A -   "
1.28, 45.76362, 0.00228249, NaN, NaN, NaN, 0.0335714, "- N/A -   "
1.33, 47.179, 0.002371346, NaN, NaN, NaN, 0.03112983, "- N/A -   "
1.38, 48.59436, 0.00245743, NaN, NaN, NaN, 0.0299091, "- N/A -   "
1.43, 49.7738, 0.00253517, NaN, NaN, NaN, 0.0335714, "- N/A -   "
1.48, 51.1892, 0.00262403, NaN, NaN, NaN, 0.03112983, "- N/A -   "
1.53, 52.84047, 0.00271566, NaN, NaN, NaN, 0.0262467, "- N/A -   "
1.58, 53.902, 0.00278786, NaN, NaN, NaN, 0.03112983, "- N/A -   "
1.63, 55.3174, 0.00286283, NaN, NaN, NaN, 0.0347922, "- N/A -   "
1.68, 56.6148, 0.00294058, NaN, NaN, NaN, 0.0372337, "- N/A -   "
1.73, 57.79426, 0.00301555, NaN, NaN, NaN, 0.04089605, "- N/A -   "
1.78, 59.0917, 0.00309052, NaN, NaN, NaN, 0.0445584, "- N/A -   "
1.83, 60.3891, 0.00317105, NaN, NaN, NaN, 0.04577916, "- N/A -   "
1.88, 62.0404, 0.00325991, NaN, NaN, NaN, 0.0433376, "- N/A -   "
1.93, 63.45574, 0.00334599, NaN, NaN, NaN, 0.0433376, "- N/A -   "
1.98, 64.98906, 0.00343484, NaN, NaN, NaN, 0.0396753, "- N/A -   "
2.03, 66.40443, 0.003523698, NaN, NaN, NaN, 0.0372337, "- N/A -   "
2.08, 68.05569, 0.003615331, NaN, NaN, NaN, 0.0335714, "- N/A -   "
2.13, 69.47106, 0.00370141, NaN, NaN, NaN, 0.0323506, "- N/A -   "
2.18, 71.12233, 0.00379027, NaN, NaN, NaN, 0.03112983, "- N/A -   "
2.23, 72.5377, 0.003873569, NaN, NaN, NaN, 0.0299091, "- N/A -   "
2.28, 73.83511, 0.003948541, NaN, NaN, NaN, 0.0335714, "- N/A -   "
2.33, 75.0146, 0.00402074, NaN, NaN, NaN, 0.0396753, "- N/A -   "
2.38, 76.31202, 0.004095709, NaN, NaN, NaN, 0.04211683, "- N/A -   "
2.43, 77.96328, 0.00417901, NaN, NaN, NaN, 0.04211683, "- N/A -   "
2.48, 79.2607, 0.004262314, NaN, NaN, NaN, 0.0433376, "- N/A -   "
2.53, 80.67606, 0.00434284, NaN, NaN, NaN, 0.0445584, "- N/A -   "
2.58, 82.44528, 0.004434473, NaN, NaN, NaN, 0.0396753, "- N/A -   "
2.63, 84.09654, 0.00452888, NaN, NaN, NaN, 0.0347922, "- N/A -   "
2.68, 85.86576, 0.00462607, NaN, NaN, NaN, 0.0286883, "- N/A -   "
2.73, 87.51702, 0.004712148, NaN, NaN, NaN, 0.0274675, "- N/A -   "
2.78, 88.8144, 0.00479267, NaN, NaN, NaN, 0.0286883, "- N/A -   "
2.83, 90.22981, 0.0048732, NaN, NaN, NaN, 0.03112983, "- N/A -   "
2.88, 91.76313, 0.00495373, NaN, NaN, NaN, 0.0323506, "- N/A -   "
2.93, 93.1785, 0.005031475, NaN, NaN, NaN, 0.0347922, "- N/A -   "
2.98, 94.59387, 0.00510922, NaN, NaN, NaN, 0.03601294, "- N/A -   "
3.03, 95.8913, 0.0051842, NaN, NaN, NaN, 0.0396753, "- N/A -   "
3.08, 97.30666, 0.005261945, NaN, NaN, NaN, 0.04211683, "- N/A -   "
3.13, 98.83998, 0.00533969, NaN, NaN, NaN, 0.0445584, "- N/A -   "
3.18, 100.255, 0.00542022, NaN, NaN, NaN, 0.04577916, "- N/A -   "
3.23, 102.025, 0.005514629, NaN, NaN, NaN, 0.04089605, "- N/A -   "
3.28, 103.676, 0.00560626, NaN, NaN, NaN, 0.0372337, "- N/A -   "
3.33, 105.327, 0.0056979, NaN, NaN, NaN, 0.0335714, "- N/A -   "
3.38, 106.86, 0.0057812, NaN, NaN, NaN, 0.0335714, "- N/A -   "
3.43, 108.512, 0.0058645, NaN, NaN, NaN, 0.0347922, "- N/A -   "
3.48, 109.8091, 0.00594225, NaN, NaN, NaN, 0.03601294, "- N/A -   "
3.53, 111.578, 0.00603111, NaN, NaN, NaN, 0.0335714, "- N/A -   "
3.58, 113.112, 0.006114408, NaN, NaN, NaN, 0.0335714, "- N/A -   "
3.63, 114.527, 0.00619771, NaN, NaN, NaN, 0.03601294, "- N/A -   "
3.68, 116.06, 0.00627546, NaN, NaN, NaN, 0.0384545, "- N/A -   "
3.73, 117.24, 0.00635043, NaN, NaN, NaN, 0.04211683, "- N/A -   "
3.78, 119.127, 0.00643651, NaN, NaN, NaN, 0.0396753, "- N/A -   "
3.83, 120.66, 0.006519814, NaN, NaN, NaN, 0.04089605, "- N/A -   "
3.88, 122.312, 0.00660589, NaN, NaN, NaN, 0.0384545, "- N/A -   "
3.93, 123.845, 0.00669475, NaN, NaN, NaN, 0.03601294, "- N/A -   "
3.98, 125.378, 0.006778052, NaN, NaN, NaN, 0.0372337, "- N/A -   "
4.03, 126.911, 0.0068558, NaN, NaN, NaN, 0.0396753, "- N/A -   "
[...]
36.27, 1364.197, 0.0606109, NaN, NaN, NaN, 0.0286883, "- N/A -   "
36.31, 1365.99, 0.06067758, NaN, NaN, NaN, 0.0286883, "- N/A -   "
36.35, 1367.42, 0.0607359, NaN, NaN, NaN, 0.0323506, "- N/A -   "
36.39, 1368.967, 0.06079421, NaN, NaN, NaN, 0.03601294, "- N/A -   "
36.43, 1370.4, 0.0608497, NaN, NaN, NaN, 0.04089605, "- N/A -   "
36.47, 1371.83, 0.0609081, NaN, NaN, NaN, 0.0445584, "- N/A -   "
36.51, 1373.618, 0.06097747, NaN, NaN, NaN, 0.0445584, "- N/A -   "
36.55, 1375.526, 0.06104689, NaN, NaN, NaN, 0.04211683, "- N/A -   "
36.59, 1377.31, 0.06111631, NaN, NaN, NaN, 0.04089605, "- N/A -   "
36.63, 1378.865, 0.0611802, NaN, NaN, NaN, 0.04211683, "- N/A -   "
36.67, 1380.65, 0.0612496, NaN, NaN, NaN, 0.04089605, "- N/A -   "
36.71, 1382.68, 0.0613246, NaN, NaN, NaN, 0.0384545, "- N/A -   "
36.75, 1384.83, 0.0614023, NaN, NaN, NaN, 0.0335714, "- N/A -   "
36.79, 1386.85, 0.0614801, NaN, NaN, NaN, 0.0286883, "- N/A -   "
36.83, 1388.52, 0.0615467, NaN, NaN, NaN, 0.0274675, "- N/A -   "
36.87, 1390.31, 0.0616106, NaN, NaN, NaN, 0.0286883, "- N/A -   "
36.91, 1391.86, 0.06167444, NaN, NaN, NaN, 0.03112983, "- N/A -   "
36.95, 1393.29, 0.06173275, NaN, NaN, NaN, 0.0335714, "- N/A -   "
36.99, 1394.96, 0.0617938, NaN, NaN, NaN, 0.0372337, "- N/A -   "
37.03, 1396.75, 0.06186048, NaN, NaN, NaN, 0.03601294, "- N/A -   "
37.07, 1398.54, 0.0619243, NaN, NaN, NaN, 0.0372337, "- N/A -   "
37.11, 1400.33, 0.0619938, NaN, NaN, NaN, 0.03601294, "- N/A -   "
37.15, 1401.76, 0.0620521, NaN, NaN, NaN, 0.0396753, "- N/A -   "
37.19, 1403.431, 0.06211594, NaN, NaN, NaN, 0.04211683, "- N/A -   "
37.23, 1404.98, 0.06217703, NaN, NaN, NaN, 0.0433376, "- N/A -   "
37.27, 1406.53, 0.0622353, NaN, NaN, NaN, 0.04699994, "- N/A -   "
37.31, 1408.32, 0.06230754, NaN, NaN, NaN, 0.04577916, "- N/A -   "
37.35, 1410.586, 0.0623825, NaN, NaN, NaN, 0.04089605, "- N/A -   "
37.39, 1412.61, 0.062463, NaN, NaN, NaN, 0.0347922, "- N/A -   "
37.43, 1414.52, 0.0625352, NaN, NaN, NaN, 0.0323506, "- N/A -   "
37.47, 1416.19, 0.06260187, NaN, NaN, NaN, 0.0335714, "- N/A -   "
37.51, 1417.622, 0.06266019, NaN, NaN, NaN, 0.03601294, "- N/A -   "
37.55, 1419.41, 0.06272405, NaN, NaN, NaN, 0.0372337, "- N/A -   "
37.59, 1421.08, 0.06279347, NaN, NaN, NaN, 0.0372337, "- N/A -   "
37.63, 1422.99, 0.06286289, NaN, NaN, NaN, 0.0347922, "- N/A -   "
37.67, 1424.9, 0.0629351, NaN, NaN, NaN, 0.0323506, "- N/A -   "
37.71, 1426.685, 0.06299895, NaN, NaN, NaN, 0.0335714, "- N/A -   "
37.75, 1428.24, 0.06306281, NaN, NaN, NaN, 0.0347922, "- N/A -   "
37.79, 1429.9, 0.0631239, NaN, NaN, NaN, 0.0372337, "- N/A -   "
37.83, 1431.22, 0.06317943, NaN, NaN, NaN, 0.04211683, "- N/A -   "
37.87, 1432.89, 0.0632433, NaN, NaN, NaN, 0.0433376, "- N/A -   "
37.91, 1435.03, 0.0633183, NaN, NaN, NaN, 0.0396753, "- N/A -   "
37.95, 1436.7, 0.06338769, NaN, NaN, NaN, 0.0384545, "- N/A -   "
37.99, 1438.491, 0.06345434, NaN, NaN, NaN, 0.0384545, "- N/A -   "
38.03, 1440.399, 0.0635238, NaN, NaN, NaN, 0.0372337, "- N/A -   "
38.07, 1442.19, 0.06359317, NaN, NaN, NaN, 0.03601294, "- N/A -   "
38.11, 1443.86, 0.06365704, NaN, NaN, NaN, 0.0372337, "- N/A -   "
38.15, 1445.65, 0.0637265, NaN, NaN, NaN, 0.03601294, "- N/A -   "
38.19, 1447.55, 0.06379865, NaN, NaN, NaN, 0.0335714, "- N/A -   "
38.23, 1449.58, 0.06387363, NaN, NaN, NaN, 0.0299091, "- N/A -   "
38.27, 1451.251, 0.06393749, NaN, NaN, NaN, 0.03112983, "- N/A -   "
38.31, 1452.92, 0.06400135, NaN, NaN, NaN, 0.0323506, "- N/A -   "
38.35, 1454.47, 0.064068, NaN, NaN, NaN, 0.0335714, "- N/A -   "
38.366, 1455.19, 0.06409299, NaN, NaN, NaN, 0.0335714, "- N/A -   "