Folder: DigitalTwins-Machine-Learning/2_Tensile_Data (part 25)

File: Hamel_ForceTest_Bolt7_Test4.csv
Time, Load (lb), Position (in), AxialStrain (in), TransverseStrain (in), Auxiliary (), Control Out (V), Stress (psi)
0.0, 1.17947, 0.0, NaN, NaN, NaN, 0.0872856, "- N/A -   "
0.01, 1.88716, 2.77675e-05, NaN, NaN, NaN, 0.09461027, "- N/A -   "
0.02, 2.476897, 6.108854E-5, NaN, NaN, NaN, 0.09338949, "- N/A -   "
0.03, 3.18458, 9.440956E-5, NaN, NaN, NaN, 0.08606482, "- N/A -   "
0.04, 3.89227, 0.000122177, NaN, NaN, NaN, 0.08118171, "- N/A -   "
0.05, 4.36406, 1.499446E-4, NaN, NaN, NaN, 0.0762986, "- N/A -   "
0.06, 4.953794, 0.000177712, NaN, NaN, NaN, 0.07263627, "- N/A -   "
0.07, 5.425584, 0.000199926, NaN, NaN, NaN, 0.0689739, "- N/A -   "
0.08, 5.897373, 0.00022214, NaN, NaN, NaN, 0.06653238, "- N/A -   "
0.09, 6.369163, 0.000244354, NaN, NaN, NaN, 0.0640908, "- N/A -   "
0.1, 6.9589, 0.000269345, NaN, NaN, NaN, 0.0604285, "- N/A -   "
0.11, 7.1948, 0.000288782, NaN, NaN, NaN, 0.0592077, "- N/A -   "
0.12, 7.666586, 3.054427E-4, NaN, NaN, NaN, 0.0592077, "- N/A -   "
0.13, 8.020428, 0.00032488, NaN, NaN, NaN, 0.0579869, "- N/A -   "
0.14, 8.256323, 0.00034154, NaN, NaN, NaN, 0.0579869, "- N/A -   "
0.15, 8.728113, 0.000358201, NaN, NaN, NaN, 0.0579869, "- N/A -   "
0.16, 9.081955, 0.000377638, NaN, NaN, NaN, 0.0579869, "- N/A -   "
0.17, 9.435798, 0.000394299, NaN, NaN, NaN, 0.05676616, "- N/A -   "
0.18, 9.78964, 0.000410959, NaN, NaN, NaN, 0.05676616, "- N/A -   "
0.19, 10.1435, 0.000430397, NaN, NaN, NaN, 0.0555454, "- N/A -   "
0.2, 10.4973, 0.000449834, NaN, NaN, NaN, 0.0543246, "- N/A -   "
0.21, 10.8512, 4.664943E-4, NaN, NaN, NaN, 0.0543246, "- N/A -   "
0.22, 11.205, 0.000485932, NaN, NaN, NaN, 0.0543246, "- N/A -   "
0.23, 11.5589, 0.000502592, NaN, NaN, NaN, 0.0531038, "- N/A -   "
0.24, 11.9127, 5.192526E-4, NaN, NaN, NaN, 0.0531038, "- N/A -   "
0.25, 12.2665, 0.00053869, NaN, NaN, NaN, 0.05188305, "- N/A -   "
0.26, 12.7383, 5.581271E-4, NaN, NaN, NaN, 0.05066227, "- N/A -   "
0.27, 13.09217, 0.000577564, NaN, NaN, NaN, 0.0494415, "- N/A -   "
0.28, 13.446, 0.000597002, NaN, NaN, NaN, 0.0482207, "- N/A -   "
0.29, 13.9178, 6.164389E-4, NaN, NaN, NaN, 0.04699994, "- N/A -   "
0.3, 14.2716, 0.000635876, NaN, NaN, NaN, 0.04577916, "- N/A -   "
0.31, 14.6255, 0.000655313, NaN, NaN, NaN, 0.0445584, "- N/A -   "
0.32, 15.0973, 6.747507E-4, NaN, NaN, NaN, 0.0433376, "- N/A -   "
0.33, 15.3332, 6.914112E-4, NaN, NaN, NaN, 0.0433376, "- N/A -   "
0.34, 15.9229, 7.080717E-4, NaN, NaN, NaN, 0.0433376, "- N/A -   "
0.35, 16.1588, 7.27509E-4, NaN, NaN, NaN, 0.04211683, "- N/A -   "
0.36, 16.5126, 0.000746946, NaN, NaN, NaN, 0.04089605, "- N/A -   "
0.37, 16.9844, 7.663835E-4, NaN, NaN, NaN, 0.0396753, "- N/A -   "
0.38, 17.3383, 0.000785821, NaN, NaN, NaN, 0.0384545, "- N/A -   "
0.39, 17.5742, 0.000802481, NaN, NaN, NaN, 0.0384545, "- N/A -   "
0.4, 18.046, 8.191418E-4, NaN, NaN, NaN, 0.0384545, "- N/A -   "
0.41, 18.3998, 8.358023E-4, NaN, NaN, NaN, 0.0384545, "- N/A -   "
0.42, 18.7536, 8.552396E-4, NaN, NaN, NaN, 0.0384545, "- N/A -   "
0.43, 19.1075, 0.0008719, NaN, NaN, NaN, 0.0384545, "- N/A -   "
0.44, 19.4613, 8.885606E-4, NaN, NaN, NaN, 0.0384545, "- N/A -   "
0.45, 19.8152, 9.052211E-4, NaN, NaN, NaN, 0.0372337, "- N/A -   "
0.46, 20.287, 9.246584E-4, NaN, NaN, NaN, 0.03601294, "- N/A -   "
0.47, 20.6408, 9.440956E-4, NaN, NaN, NaN, 0.0347922, "- N/A -   "
0.48, 21.1126, 0.000960756, NaN, NaN, NaN, 0.0347922, "- N/A -   "
0.49, 21.5844, 9.801934E-4, NaN, NaN, NaN, 0.0335714, "- N/A -   "
0.5, 21.8203, 9.996307E-4, NaN, NaN, NaN, 0.0323506, "- N/A -   "
0.51, 22.1741, 0.00101629, NaN, NaN, NaN, 0.0323506, "- N/A -   "
0.74, 30.0766, 0.0013856, NaN, NaN, NaN, 0.0384545, "- N/A -   "
0.97, 38.5688, 0.00175768, NaN, NaN, NaN, 0.0433376, "- N/A -   "
1.2, 48.2405, 0.00217142, NaN, NaN, NaN, 0.0299091, "- N/A -   "
1.43, 57.20452, 0.00253517, NaN, NaN, NaN, 0.0384545, "- N/A -   "
1.66, 66.87622, 0.00292114, NaN, NaN, NaN, 0.0372337, "- N/A -   "
1.89, 76.5479, 0.00330433, NaN, NaN, NaN, 0.0372337, "- N/A -   "
2.12, 86.33755, 0.00368475, NaN, NaN, NaN, 0.0384545, "- N/A -   "
2.35, 96.481, 0.004073495, NaN, NaN, NaN, 0.03601294, "- N/A -   "
2.58, 106.86, 0.004465017, NaN, NaN, NaN, 0.0323506, "- N/A -   "
2.81, 116.65, 0.004839879, NaN, NaN, NaN, 0.03601294, "- N/A -   "
3.04, 126.44, 0.005209187, NaN, NaN, NaN, 0.04211683, "- N/A -   "
3.27, 137.055, 0.005609039, NaN, NaN, NaN, 0.0347922, "- N/A -   "
3.5, 146.963, 0.00598945, NaN, NaN, NaN, 0.03601294, "- N/A -   "
3.73, 156.988, 0.006372646, NaN, NaN, NaN, 0.0372337, "- N/A -   "
3.96, 167.485, 0.006772498, NaN, NaN, NaN, 0.0299091, "- N/A -   "
4.19, 176.449, 0.007125145, NaN, NaN, NaN, 0.0433376, "- N/A -   "
4.42, 186.475, 0.00751389, NaN, NaN, NaN, 0.04089605, "- N/A -   "
4.65, 196.736, 0.007913743, NaN, NaN, NaN, 0.0335714, "- N/A -   "
4.88, 205.936, 0.008283051, NaN, NaN, NaN, 0.0396753, "- N/A -   "
5.11, 215.962, 0.008682903, NaN, NaN, NaN, 0.0323506, "- N/A -   "
5.34, 225.044, 0.009057764, NaN, NaN, NaN, 0.03601294, "- N/A -   "
5.57, 234.008, 0.00942707, NaN, NaN, NaN, 0.04211683, "- N/A -   "
5.8, 243.443, 0.009821371, NaN, NaN, NaN, 0.0372337, "- N/A -   "
6.03, 252.987, 0.0102157, NaN, NaN, NaN, 0.0323506, "- N/A -   "
6.26, 261.8235, 0.0105905, NaN, NaN, NaN, 0.03601294, "- N/A -   "
6.49, 270.8961, 0.0109709, NaN, NaN, NaN, 0.0372337, "- N/A -   "
6.72, 280.204, 0.0113708, NaN, NaN, NaN, 0.0299091, "- N/A -   "
6.95, 287.981, 0.0117234, NaN, NaN, NaN, 0.0433376, "- N/A -   "
7.18, 297.525, 0.0121205, NaN, NaN, NaN, 0.0372337, "- N/A -   "
7.41, 306.597, 0.01252315, NaN, NaN, NaN, 0.0286883, "- N/A -   "
7.64, 314.61, 0.0128758, NaN, NaN, NaN, 0.04211683, "- N/A -   "
7.87, 324.036, 0.0132784, NaN, NaN, NaN, 0.0335714, "- N/A -   "
8.1, 332.7548, 0.0136644, NaN, NaN, NaN, 0.0335714, "- N/A -   "
8.33, 341.238, 0.0140254, NaN, NaN, NaN, 0.0433376, "- N/A -   "
8.56, 351.018, 0.0144363, NaN, NaN, NaN, 0.03112983, "- N/A -   "
8.79, 359.9726, 0.0148112, NaN, NaN, NaN, 0.0347922, "- N/A -   "
9.02, 368.5739, 0.0151805, NaN, NaN, NaN, 0.04089605, "- N/A -   "
9.25, 378.118, 0.0155748, NaN, NaN, NaN, 0.03601294, "- N/A -   "
9.48, 387.308, 0.0159635, NaN, NaN, NaN, 0.0335714, "- N/A -   "
9.71, 396.027, 0.0163329, NaN, NaN, NaN, 0.0396753, "- N/A -   "
9.94, 405.807, 0.0167299, NaN, NaN, NaN, 0.0335714, "- N/A -   "
10.17, 414.997, 0.0171187, NaN, NaN, NaN, 0.03112983, "- N/A -   "
10.4, 423.4809, 0.0174741, NaN, NaN, NaN, 0.0433376, "- N/A -   "
10.63, 433.496, 0.0178795, NaN, NaN, NaN, 0.0335714, "- N/A -   "
10.86, 443.1578, 0.01827658, NaN, NaN, NaN, 0.0274675, "- N/A -   "
11.09, 451.523, 0.0186237, NaN, NaN, NaN, 0.0433376, "- N/A -   "
11.32, 461.421, 0.0190235, NaN, NaN, NaN, 0.03601294, "- N/A -   "
11.55, 470.965, 0.0194095, NaN, NaN, NaN, 0.0347922, "- N/A -   "
11.78, 480.1552, 0.019776, NaN, NaN, NaN, 0.04211683, "- N/A -   "
12.01, 490.5239, 0.020187, NaN, NaN, NaN, 0.0299091, "- N/A -   "
12.24, 500.068, 0.0205646, NaN, NaN, NaN, 0.0323506, "- N/A -   "
12.47, 509.3761, 0.0209312, NaN, NaN, NaN, 0.0396753, "- N/A -   "
12.7, 519.1775, 0.0213227, NaN, NaN, NaN, 0.0372337, "- N/A -   "
12.93, 529.1131, 0.0217086, NaN, NaN, NaN, 0.03601294, "- N/A -   "
13.16, 538.576, 0.02208073, NaN, NaN, NaN, 0.04089605, "- N/A -   "
13.39, 548.866, 0.0224806, NaN, NaN, NaN, 0.0347922, "- N/A -   "
[...]
22.36, 948.7735, 0.03742506, NaN, NaN, NaN, 0.03601294, "- N/A -   "
22.59, 959.064, 0.03779992, NaN, NaN, NaN, 0.0396753, "- N/A -   "
22.82, 969.473, 0.0381831, NaN, NaN, NaN, 0.0396753, "- N/A -   "
23.05, 980.3545, 0.03858019, NaN, NaN, NaN, 0.0347922, "- N/A -   "
23.28, 990.6449, 0.03895783, NaN, NaN, NaN, 0.03601294, "- N/A -   "
23.51, 1000.94, 0.0393299, NaN, NaN, NaN, 0.04089605, "- N/A -   "
23.74, 1011.58, 0.0397298, NaN, NaN, NaN, 0.0335714, "- N/A -   "
23.97, 1021.82, 0.0401019, NaN, NaN, NaN, 0.0384545, "- N/A -   "
24.2, 1032.2, 0.0404823, NaN, NaN, NaN, 0.0396753, "- N/A -   "
24.43, 1043.41, 0.04088767, NaN, NaN, NaN, 0.0299091, "- N/A -   "
24.66, 1052.83, 0.0412431, NaN, NaN, NaN, 0.04211683, "- N/A -   "
24.89, 1063.682, 0.0416346, NaN, NaN, NaN, 0.0384545, "- N/A -   "
25.12, 1074.65, 0.04203725, NaN, NaN, NaN, 0.0299091, "- N/A -   "
25.35, 1084.43, 0.04239545, NaN, NaN, NaN, 0.04089605, "- N/A -   "
25.58, 1095.28, 0.04279252, NaN, NaN, NaN, 0.0347922, "- N/A -   "
25.81, 1105.9, 0.0431785, NaN, NaN, NaN, 0.0335714, "- N/A -   "
26.04, 1115.8, 0.043545, NaN, NaN, NaN, 0.04089605, "- N/A -   "
26.27, 1127, 0.0439449, NaN, NaN, NaN, 0.0347922, "- N/A -   "
26.5, 1137.74, 0.0443336, NaN, NaN, NaN, 0.0323506, "- N/A -   "
26.73, 1147.64, 0.04470293, NaN, NaN, NaN, 0.0396753, "- N/A -   "
26.96, 1158.01, 0.0450778, NaN, NaN, NaN, 0.04211683, "- N/A -   "
27.19, 1169.34, 0.0454887, NaN, NaN, NaN, 0.0299091, "- N/A -   "
27.42, 1178.88, 0.04584417, NaN, NaN, NaN, 0.04211683, "- N/A -   "
27.65, 1190.09, 0.046244, NaN, NaN, NaN, 0.0347922, "- N/A -   "
27.88, 1201.06, 0.0466411, NaN, NaN, NaN, 0.0286883, "- N/A -   "
28.11, 1210.6, 0.0469882, NaN, NaN, NaN, 0.0445584, "- N/A -   "
28.34, 1221.45, 0.0473825, NaN, NaN, NaN, 0.04089605, "- N/A -   "
28.57, 1232.66, 0.0477823, NaN, NaN, NaN, 0.0323506, "- N/A -   "
28.8, 1242.56, 0.0481461, NaN, NaN, NaN, 0.04089605, "- N/A -   "
29.03, 1254.01, 0.04855706, NaN, NaN, NaN, 0.0286883, "- N/A -   "
29.26, 1264.5, 0.0489319, NaN, NaN, NaN, 0.0323506, "- N/A -   "
29.49, 1274.4, 0.04929845, NaN, NaN, NaN, 0.04089605, "- N/A -   "
29.72, 1285.133, 0.0496816, NaN, NaN, NaN, 0.0396753, "- N/A -   "
29.95, 1296.1, 0.0500815, NaN, NaN, NaN, 0.0323506, "- N/A -   "
30.18, 1306, 0.0504508, NaN, NaN, NaN, 0.0384545, "- N/A -   "
30.41, 1316.854, 0.0508423, NaN, NaN, NaN, 0.03601294, "- N/A -   "
30.64, 1327.83, 0.05124218, NaN, NaN, NaN, 0.0274675, "- N/A -   "
30.87, 1337.01, 0.0515865, NaN, NaN, NaN, 0.04699994, "- N/A -   "
31.1, 1348.098, 0.0519891, NaN, NaN, NaN, 0.0372337, "- N/A -   "
31.33, 1358.95, 0.052389, NaN, NaN, NaN, 0.0299091, "- N/A -   "
31.56, 1368.49, 0.0527444, NaN, NaN, NaN, 0.04211683, "- N/A -   "
31.79, 1379.819, 0.0531526, NaN, NaN, NaN, 0.03112983, "- N/A -   "
32.02, 1389.6, 0.0535247, NaN, NaN, NaN, 0.0372337, "- N/A -   "
32.25, 1399.38, 0.0538856, NaN, NaN, NaN, 0.04577916, "- N/A -   "
32.48, 1410.71, 0.0542994, NaN, NaN, NaN, 0.0323506, "- N/A -   "
32.71, 1421.08, 0.0546826, NaN, NaN, NaN, 0.0323506, "- N/A -   "
32.94, 1430.98, 0.0550547, NaN, NaN, NaN, 0.0372337, "- N/A -   "
33.17, 1441.59, 0.0554434, NaN, NaN, NaN, 0.0347922, "- N/A -   "
33.4, 1451.97, 0.0558266, NaN, NaN, NaN, 0.0347922, "- N/A -   "
33.63, 1461.75, 0.05619313, NaN, NaN, NaN, 0.04211683, "- N/A -   "
33.86, 1472.72, 0.056593, NaN, NaN, NaN, 0.0347922, "- N/A -   "
34.09, 1483.57, 0.0569901, NaN, NaN, NaN, 0.0299091, "- N/A -   "
34.32, 1492.63, 0.05733715, NaN, NaN, NaN, 0.04577916, "- N/A -   "
34.55, 1503.84, 0.05775089, NaN, NaN, NaN, 0.03112983, "- N/A -   "
34.652, 1508.61, 0.05792582, NaN, NaN, NaN, 0.0299091, "- N/A -   "

File: Hamel_ForceTest_Bolt7_Test5.csv
Time, Load (lb), Position (in), AxialStrain (in), TransverseStrain (in), Auxiliary (), Control Out (V), Stress (psi)
0.0, 1.17947, 0.0, NaN, NaN, NaN, 0.09094793, "- N/A -   "
0.01, 1.76921, 2.49908e-05, NaN, NaN, NaN, 0.09949338, "- N/A -   "
0.02, 2.476897, 5.27583e-05, NaN, NaN, NaN, 0.106818, "- N/A -   "
0.03, 3.30253, 8.33026e-05, NaN, NaN, NaN, 0.114143, "- N/A -   "
0.04, 4.010214, 0.000116624, NaN, NaN, NaN, 0.106818, "- N/A -   "
0.05, 4.83585, 0.000147168, NaN, NaN, NaN, 0.09949338, "- N/A -   "
0.06, 5.66148, 0.000183266, NaN, NaN, NaN, 0.09094793, "- N/A -   "
0.07, 6.369163, 0.000216587, NaN, NaN, NaN, 0.084844, "- N/A -   "
0.08, 7.07685, 2.471309E-4, NaN, NaN, NaN, 0.07874016, "- N/A -   "
0.09, 7.666586, 0.000274898, NaN, NaN, NaN, 0.07263627, "- N/A -   "
0.1, 8.37427, 0.000302666, NaN, NaN, NaN, 0.0689739, "- N/A -   "
0.11, 8.964007, 0.000327657, NaN, NaN, NaN, 0.0653116, "- N/A -   "
0.12, 9.553744, 0.000349871, NaN, NaN, NaN, 0.06164927, "- N/A -   "
0.13, 10.0255, 0.000377638, NaN, NaN, NaN, 0.0579869, "- N/A -   "
0.14, 10.6153, 0.000399852, NaN, NaN, NaN, 0.0555454, "- N/A -   "
0.15, 11.0871, 4.192895E-4, NaN, NaN, NaN, 0.0531038, "- N/A -   "
0.16, 11.6768, 0.000441504, NaN, NaN, NaN, 0.05188305, "- N/A -   "
0.17, 11.9127, 0.000458164, NaN, NaN, NaN, 0.05066227, "- N/A -   "
0.18, 12.2665, 0.000474825, NaN, NaN, NaN, 0.05066227, "- N/A -   "
0.19, 12.8563, 4.970386E-4, NaN, NaN, NaN, 0.0494415, "- N/A -   "
0.2, 13.2101, 5.192526E-4, NaN, NaN, NaN, 0.04699994, "- N/A -   "
0.21, 13.6819, 5.359131E-4, NaN, NaN, NaN, 0.04577916, "- N/A -   "
0.22, 14.2716, 5.581271E-4, NaN, NaN, NaN, 0.0433376, "- N/A -   "
0.23, 14.7434, 0.000580341, NaN, NaN, NaN, 0.04089605, "- N/A -   "
0.24, 15.2152, 0.000602555, NaN, NaN, NaN, 0.0396753, "- N/A -   "
0.25, 15.687, 6.219924E-4, NaN, NaN, NaN, 0.0372337, "- N/A -   "
0.26, 16.1588, 6.442064E-4, NaN, NaN, NaN, 0.03601294, "- N/A -   "
0.27, 16.6306, 6.636437E-4, NaN, NaN, NaN, 0.0335714, "- N/A -   "
0.28, 16.86649, 6.803042E-4, NaN, NaN, NaN, 0.0335714, "- N/A -   "
0.29, 17.3383, 6.997415E-4, NaN, NaN, NaN, 0.0323506, "- N/A -   "
0.3, 17.6921, 0.000716402, NaN, NaN, NaN, 0.0323506, "- N/A -   "
0.31, 18.046, 0.000733062, NaN, NaN, NaN, 0.0323506, "- N/A -   "
0.32, 18.5178, 7.49723E-4, NaN, NaN, NaN, 0.0335714, "- N/A -   "
0.33, 18.8716, 7.663835E-4, NaN, NaN, NaN, 0.0335714, "- N/A -   "
0.34, 19.1075, 0.000780267, NaN, NaN, NaN, 0.0335714, "- N/A -   "
0.35, 19.4613, 0.000794151, NaN, NaN, NaN, 0.0347922, "- N/A -   "
0.36, 19.6972, 8.080348E-4, NaN, NaN, NaN, 0.03601294, "- N/A -   "
0.37, 20.05107, 0.000821919, NaN, NaN, NaN, 0.0372337, "- N/A -   "
0.38, 20.4049, 8.358023E-4, NaN, NaN, NaN, 0.0384545, "- N/A -   "
0.39, 20.6408, 0.000849686, NaN, NaN, NaN, 0.0396753, "- N/A -   "
0.4, 20.99465, 8.635698E-4, NaN, NaN, NaN, 0.04089605, "- N/A -   "
0.41, 21.3485, 0.00088023, NaN, NaN, NaN, 0.04089605, "- N/A -   "
0.42, 21.7023, 8.968908E-4, NaN, NaN, NaN, 0.04089605, "- N/A -   "
0.43, 21.93823, 9.107746E-4, NaN, NaN, NaN, 0.04211683, "- N/A -   "
0.44, 22.41, 9.246584E-4, NaN, NaN, NaN, 0.0433376, "- N/A -   "
0.45, 22.7639, 9.385421E-4, NaN, NaN, NaN, 0.0445584, "- N/A -   "
0.51, 24.769, 0.00103573, NaN, NaN, NaN, 0.04577916, "- N/A -   "
0.57, 27.2459, 0.001141245, NaN, NaN, NaN, 0.0445584, "- N/A -   "
0.63, 29.84071, 0.00125232, NaN, NaN, NaN, 0.0384545, "- N/A -   "
0.69, 32.08171, 0.00135783, NaN, NaN, NaN, 0.03601294, "- N/A -   "
0.75, 34.4407, 0.00145779, NaN, NaN, NaN, 0.03601294, "- N/A -   "
0.81, 37.0355, 0.00157164, NaN, NaN, NaN, 0.03112983, "- N/A -   "
0.87, 39.5124, 0.00167438, NaN, NaN, NaN, 0.0286883, "- N/A -   "
0.93, 41.7534, 0.00177712, NaN, NaN, NaN, 0.0274675, "- N/A -   "
0.99, 43.75851, 0.0018632, NaN, NaN, NaN, 0.0335714, "- N/A -   "
1.05, 45.8816, 0.00194928, NaN, NaN, NaN, 0.0396753, "- N/A -   "
1.11, 47.8867, 0.002038136, NaN, NaN, NaN, 0.0445584, "- N/A -   "
1.17, 50.2456, 0.002138099, NaN, NaN, NaN, 0.0445584, "- N/A -   "
1.23, 52.48662, 0.00223251, NaN, NaN, NaN, 0.04699994, "- N/A -   "
1.29, 55.1994, 0.00234358, NaN, NaN, NaN, 0.0433376, "- N/A -   "
1.35, 57.91221, 0.00245465, NaN, NaN, NaN, 0.0372337, "- N/A -   "
1.41, 60.7429, 0.00257405, NaN, NaN, NaN, 0.0286883, "- N/A -   "
1.47, 62.98395, 0.00267124, NaN, NaN, NaN, 0.0299091, "- N/A -   "
1.53, 65.4608, 0.00276287, NaN, NaN, NaN, 0.0335714, "- N/A -   "
1.59, 67.5839, 0.00285728, NaN, NaN, NaN, 0.0372337, "- N/A -   "
1.65, 70.17874, 0.00296002, NaN, NaN, NaN, 0.03601294, "- N/A -   "
1.71, 72.65564, 0.00305998, NaN, NaN, NaN, 0.0347922, "- N/A -   "
1.77, 74.66075, 0.00314606, NaN, NaN, NaN, 0.04089605, "- N/A -   "
1.83, 77.0197, 0.00323769, NaN, NaN, NaN, 0.04577916, "- N/A -   "
1.89, 79.37865, 0.00333488, NaN, NaN, NaN, 0.04577916, "- N/A -   "
1.95, 82.32734, 0.0034515, NaN, NaN, NaN, 0.0384545, "- N/A -   "
2.01, 85.15807, 0.00356813, NaN, NaN, NaN, 0.03112983, "- N/A -   "
2.07, 87.75292, 0.00367364, NaN, NaN, NaN, 0.0286883, "- N/A -   "
2.13, 89.99392, 0.00376528, NaN, NaN, NaN, 0.0335714, "- N/A -   "
2.19, 92.23492, 0.00385691, NaN, NaN, NaN, 0.03601294, "- N/A -   "
2.25, 94.8298, 0.00395965, NaN, NaN, NaN, 0.03601294, "- N/A -   "
2.31, 97.54256, 0.00407072, NaN, NaN, NaN, 0.03112983, "- N/A -   "
2.37, 99.9015, 0.00416235, NaN, NaN, NaN, 0.0335714, "- N/A -   "
2.43, 101.789, 0.00424843, NaN, NaN, NaN, 0.0396753, "- N/A -   "
2.49, 104.148, 0.00434284, NaN, NaN, NaN, 0.04211683, "- N/A -   "
2.55, 106.742, 0.00444558, NaN, NaN, NaN, 0.04089605, "- N/A -   "
2.61, 109.219, 0.004545543, NaN, NaN, NaN, 0.04089605, "- N/A -   "
2.67, 111.932, 0.004653836, NaN, NaN, NaN, 0.0384545, "- N/A -   "
2.73, 114.527, 0.004759352, NaN, NaN, NaN, 0.0347922, "- N/A -   "
2.79, 116.886, 0.004859315, NaN, NaN, NaN, 0.0347922, "- N/A -   "
2.85, 119.481, 0.004967609, NaN, NaN, NaN, 0.03112983, "- N/A -   "
2.91, 121.84, 0.00506202, NaN, NaN, NaN, 0.0335714, "- N/A -   "
2.97, 123.963, 0.0051592, NaN, NaN, NaN, 0.03601294, "- N/A -   "
3.03, 126.676, 0.00526194, NaN, NaN, NaN, 0.0335714, "- N/A -   "
3.09, 129.152, 0.00536468, NaN, NaN, NaN, 0.0335714, "- N/A -   "
3.15, 131.276, 0.00545076, NaN, NaN, NaN, 0.0384545, "- N/A -   "
3.21, 133.399, 0.00554517, NaN, NaN, NaN, 0.04089605, "- N/A -   "
3.27, 135.758, 0.005639583, NaN, NaN, NaN, 0.0445584, "- N/A -   "
3.33, 138.352, 0.00574232, NaN, NaN, NaN, 0.04211683, "- N/A -   "
3.39, 141.183, 0.00585339, NaN, NaN, NaN, 0.0372337, "- N/A -   "
3.45, 143.896, 0.00596724, NaN, NaN, NaN, 0.03112983, "- N/A -   "
3.51, 146.137, 0.006064426, NaN, NaN, NaN, 0.0335714, "- N/A -   "
3.57, 148.26, 0.006164389, NaN, NaN, NaN, 0.0347922, "- N/A -   "
3.63, 150.973, 0.00626991, NaN, NaN, NaN, 0.03112983, "- N/A -   "
3.69, 153.568, 0.006372645, NaN, NaN, NaN, 0.0299091, "- N/A -   "
3.75, 155.691, 0.006467055, NaN, NaN, NaN, 0.0323506, "- N/A -   "
3.81, 157.696, 0.006550357, NaN, NaN, NaN, 0.0396753, "- N/A -   "
3.87, 159.701, 0.00663921, NaN, NaN, NaN, 0.04577916, "- N/A -   "
3.93, 161.942, 0.00673362, NaN, NaN, NaN, 0.0482207, "- N/A -   "
3.99, 164.537, 0.00683914, NaN, NaN, NaN, 0.0445584, "- N/A -   "
4.05, 167.367, 0.00695576, NaN, NaN, NaN, 0.0384545, "- N/A -   "
4.11, 169.726, 0.00706128, NaN, NaN, NaN, 0.0347922, "- N/A -   "
[...]
23.73, 980.946, 0.0397464, NaN, NaN, NaN, 0.04089605, "- N/A -   "
23.89, 988.752, 0.0400324, NaN, NaN, NaN, 0.0335714, "- N/A -   "
24.05, 995.9675, 0.040299, NaN, NaN, NaN, 0.0323506, "- N/A -   "
24.21, 1003.42, 0.04057112, NaN, NaN, NaN, 0.03112983, "- N/A -   "
24.37, 1009.33, 0.0408016, NaN, NaN, NaN, 0.04577916, "- N/A -   "
24.53, 1017.17, 0.04108482, NaN, NaN, NaN, 0.0384545, "- N/A -   "
24.69, 1024.69, 0.04136527, NaN, NaN, NaN, 0.0323506, "- N/A -   "
24.85, 1031.961, 0.04163184, NaN, NaN, NaN, 0.0323506, "- N/A -   "
25.01, 1038.16, 0.0418706, NaN, NaN, NaN, 0.0445584, "- N/A -   "
25.17, 1045.91, 0.0421511, NaN, NaN, NaN, 0.0384545, "- N/A -   "
25.33, 1053.9, 0.0424454, NaN, NaN, NaN, 0.0274675, "- N/A -   "
25.49, 1060.7, 0.0426953, NaN, NaN, NaN, 0.0335714, "- N/A -   "
25.65, 1067.856, 0.0429564, NaN, NaN, NaN, 0.0372337, "- N/A -   "
25.81, 1074.534, 0.04320348, NaN, NaN, NaN, 0.0445584, "- N/A -   "
25.97, 1082.76, 0.0435006, NaN, NaN, NaN, 0.0323506, "- N/A -   "
26.13, 1089.68, 0.0437588, NaN, NaN, NaN, 0.0347922, "- N/A -   "
26.29, 1096.83, 0.0440198, NaN, NaN, NaN, 0.0384545, "- N/A -   "
26.45, 1103.87, 0.0442836, NaN, NaN, NaN, 0.0396753, "- N/A -   "
26.61, 1111.14, 0.0445502, NaN, NaN, NaN, 0.0396753, "- N/A -   "
26.77, 1118.9, 0.0448362, NaN, NaN, NaN, 0.03112983, "- N/A -   "
26.93, 1126.17, 0.04510278, NaN, NaN, NaN, 0.0323506, "- N/A -   "
27.09, 1132.61, 0.04534158, NaN, NaN, NaN, 0.0433376, "- N/A -   "
27.25, 1139.88, 0.04560815, NaN, NaN, NaN, 0.0433376, "- N/A -   "
27.41, 1147.99, 0.0458914, NaN, NaN, NaN, 0.03601294, "- N/A -   "
27.57, 1155.63, 0.04617461, NaN, NaN, NaN, 0.0299091, "- N/A -   "
27.73, 1161.83, 0.0464079, NaN, NaN, NaN, 0.0433376, "- N/A -   "
27.89, 1169.46, 0.04668, NaN, NaN, NaN, 0.04089605, "- N/A -   "
28.05, 1177.21, 0.0469632, NaN, NaN, NaN, 0.0335714, "- N/A -   "
28.21, 1184.842, 0.04724366, NaN, NaN, NaN, 0.0274675, "- N/A -   "
28.37, 1191.16, 0.0474769, NaN, NaN, NaN, 0.04211683, "- N/A -   "
28.53, 1198.32, 0.04773514, NaN, NaN, NaN, 0.04577916, "- N/A -   "
28.69, 1206.546, 0.04803225, NaN, NaN, NaN, 0.0323506, "- N/A -   "
28.85, 1213.701, 0.0483016, NaN, NaN, NaN, 0.0323506, "- N/A -   "
29.01, 1220.98, 0.0485598, NaN, NaN, NaN, 0.03601294, "- N/A -   "
29.17, 1227.65, 0.04880419, NaN, NaN, NaN, 0.0445584, "- N/A -   "
29.33, 1236.12, 0.04910686, NaN, NaN, NaN, 0.0286883, "- N/A -   "
29.49, 1243.037, 0.0493595, NaN, NaN, NaN, 0.0347922, "- N/A -   "
29.65, 1250.43, 0.0496289, NaN, NaN, NaN, 0.0335714, "- N/A -   "
29.81, 1257.59, 0.0498899, NaN, NaN, NaN, 0.03601294, "- N/A -   "
29.97, 1264.5, 0.0501454, NaN, NaN, NaN, 0.04089605, "- N/A -   "
30.13, 1271.896, 0.0504147, NaN, NaN, NaN, 0.0396753, "- N/A -   "
30.29, 1279.77, 0.0507007, NaN, NaN, NaN, 0.03112983, "- N/A -   "
30.45, 1286.44, 0.0509534, NaN, NaN, NaN, 0.0372337, "- N/A -   "
30.61, 1293.72, 0.0512144, NaN, NaN, NaN, 0.0396753, "- N/A -   "
30.77, 1301.47, 0.0515004, NaN, NaN, NaN, 0.0323506, "- N/A -   "
30.93, 1308.86, 0.05176976, NaN, NaN, NaN, 0.03112983, "- N/A -   "
31.09, 1315.66, 0.0520224, NaN, NaN, NaN, 0.0372337, "- N/A -   "
31.25, 1322.22, 0.0522668, NaN, NaN, NaN, 0.04699994, "- N/A -   "
31.41, 1330.21, 0.0525584, NaN, NaN, NaN, 0.03601294, "- N/A -   "
31.57, 1337.72, 0.05283881, NaN, NaN, NaN, 0.0299091, "- N/A -   "
31.73, 1344.52, 0.05308594, NaN, NaN, NaN, 0.0384545, "- N/A -   "
31.89, 1351.2, 0.05333863, NaN, NaN, NaN, 0.0445584, "- N/A -   "
32.05, 1359.19, 0.0536302, NaN, NaN, NaN, 0.0335714, "- N/A -   "
32.21, 1366.7, 0.0539051, NaN, NaN, NaN, 0.0299091, "- N/A -   "
32.229, 1367.66, 0.0539412, NaN, NaN, NaN, 0.0286883, "- N/A -   "