Folder: DigitalTwins-Machine-Learning/2_Tensile_Data

Note: README.md
Final Project for the Data Science and Analytics Masters program at the University of Oklahoma

File: Hamel_ForceTest_Bolt1_Test1.csv
Time, Load (lb), Position (in), AxialStrain (in), TransverseStrain (in), Auxiliary (), Control Out (V), Stress (psi)
0.0,1.29742,0.0, NaN, NaN, NaN,0.09949338," ""- N/A -   """
0.01,1.76921,2.49908e-05, NaN, NaN, NaN,0.108039," ""- N/A -   """
0.02,2.12305,5.5535e-05, NaN, NaN, NaN,0.108039," ""- N/A -   """
0.03,2.59484,8.33026e-05, NaN, NaN, NaN,0.103156," ""- N/A -   """
0.04,2.94869,0.00011107, NaN, NaN, NaN,0.0982726," ""- N/A -   """
0.1,5.307636,0.000263791, NaN, NaN, NaN,0.0750778," ""- N/A -   """
0.16,7.07685,0.000394299, NaN, NaN, NaN,0.06164927," ""- N/A -   """
0.22,9.31785,0.000533136, NaN, NaN, NaN,0.0445584," ""- N/A -   """
0.28,11.0871,0.0006525367, NaN, NaN, NaN,0.03601294," ""- N/A -   """
0.34,12.8563,0.00076083, NaN, NaN, NaN,0.0335714," ""- N/A -   """
0.4,14.3896,0.0008552396, NaN, NaN, NaN,0.0347922," ""- N/A -   """
0.46,15.9229,0.0009524259, NaN, NaN, NaN,0.03601294," ""- N/A -   """
0.52,17.4562,0.00105239, NaN, NaN, NaN,0.03601294," ""- N/A -   """
0.58,19.1075,0.001152352, NaN, NaN, NaN,0.03601294," ""- N/A -   """
0.64,20.52286,0.00124398, NaN, NaN, NaN,0.0396753," ""- N/A -   """
0.7,22.1741,0.00134117, NaN, NaN, NaN,0.04211683," ""- N/A -   """
0.76,23.82539,0.00143836, NaN, NaN, NaN,0.04211683," ""- N/A -   """
0.82,25.7125,0.00154943, NaN, NaN, NaN,0.0372337," ""- N/A -   """
0.88,27.5997,0.0016605, NaN, NaN, NaN,0.0335714," ""- N/A -   """
0.94,29.251,0.00176324, NaN, NaN, NaN,0.03112983," ""- N/A -   """
1.0,30.6663,0.00185209, NaN, NaN, NaN,0.03601294," ""- N/A -   """
1.06,32.4356,0.00195206, NaN, NaN, NaN,0.03601294," ""- N/A -   """
1.12,34.08682,0.0020548, NaN, NaN, NaN,0.0347922," ""- N/A -   """
1.18,35.7381,0.002157536, NaN, NaN, NaN,0.0347922," ""- N/A -   """
1.24,37.5073,0.002249169, NaN, NaN, NaN,0.0372337," ""- N/A -   """
1.3,38.9227,0.00233803, NaN, NaN, NaN,0.0433376," ""- N/A -   """
1.36,40.69188,0.00243799, NaN, NaN, NaN,0.04211683," ""- N/A -   """
1.42,42.3431,0.0025435, NaN, NaN, NaN,0.0396753," ""- N/A -   """
1.48,44.1124,0.00264624, NaN, NaN, NaN,0.0384545," ""- N/A -   """
1.54,45.8816,0.00275176, NaN, NaN, NaN,0.03601294," ""- N/A -   """
1.6,47.5328,0.00285728, NaN, NaN, NaN,0.0347922," ""- N/A -   """
1.66,49.30204,0.002957241, NaN, NaN, NaN,0.0335714," ""- N/A -   """
1.72,50.9533,0.00305998, NaN, NaN, NaN,0.0323506," ""- N/A -   """
1.78,52.6046,0.00315994, NaN, NaN, NaN,0.0323506," ""- N/A -   """
1.84,54.3738,0.003259907, NaN, NaN, NaN,0.0335714," ""- N/A -   """
1.9,56.02505,0.00335987, NaN, NaN, NaN,0.0323506," ""- N/A -   """
1.96,57.6763,0.00345428, NaN, NaN, NaN,0.0347922," ""- N/A -   """
2.02,59.2096,0.00354591, NaN, NaN, NaN,0.0396753," ""- N/A -   """
2.08,60.8609,0.0036431, NaN, NaN, NaN,0.0396753," ""- N/A -   """
2.14,62.6301,0.00374028, NaN, NaN, NaN,0.04089605," ""- N/A -   """
2.2,64.28137,0.00383747, NaN, NaN, NaN,0.04211683," ""- N/A -   """
2.26,66.2865,0.00395409, NaN, NaN, NaN,0.0347922," ""- N/A -   """
2.32,68.17364,0.00405961, NaN, NaN, NaN,0.0323506," ""- N/A -   """
2.38,69.707,0.004154021, NaN, NaN, NaN,0.0347922," ""- N/A -   """
2.44,71.59412,0.00425676, NaN, NaN, NaN,0.0347922," ""- N/A -   """
2.5,73.59922,0.004365054, NaN, NaN, NaN,0.0299091," ""- N/A -   """
2.56,75.25049,0.004465017, NaN, NaN, NaN,0.0299091," ""- N/A -   """
2.62,76.7838,0.004553873, NaN, NaN, NaN,0.0347922," ""- N/A -   """
2.68,78.19917,0.00463718, NaN, NaN, NaN,0.04211683," ""- N/A -   """
2.74,79.85043,0.004723255, NaN, NaN, NaN,0.0482207," ""- N/A -   """
2.8,81.5017,0.004825995, NaN, NaN, NaN,0.0482207," ""- N/A -   """
2.86,83.86065,0.004939842, NaN, NaN, NaN,0.04089605," ""- N/A -   """
2.92,85.74781,0.005050912, NaN, NaN, NaN,0.03601294," ""- N/A -   """
2.98,87.75292,0.005156428, NaN, NaN, NaN,0.0335714," ""- N/A -   """
3.04,89.758,0.0052675, NaN, NaN, NaN,0.0286883," ""- N/A -   """
3.1,91.64519,0.00537024, NaN, NaN, NaN,0.0274675," ""- N/A -   """
3.16,93.53234,0.0054702, NaN, NaN, NaN,0.0274675," ""- N/A -   """
3.22,95.06567,0.005561834, NaN, NaN, NaN,0.03112983," ""- N/A -   """
3.28,96.599,0.00564791, NaN, NaN, NaN,0.0372337," ""- N/A -   """
3.34,98.2502,0.00573677, NaN, NaN, NaN,0.04211683," ""- N/A -   """
3.4,100.019,0.00583396, NaN, NaN, NaN,0.0433376," ""- N/A -   """
3.46,101.907,0.0059367, NaN, NaN, NaN,0.04211683," ""- N/A -   """
3.52,104.03,0.006042212, NaN, NaN, NaN,0.04089605," ""- N/A -   """
3.58,105.917,0.006144952, NaN, NaN, NaN,0.0396753," ""- N/A -   """
3.64,108.04,0.00625325, NaN, NaN, NaN,0.03601294," ""- N/A -   """
3.7,110.045,0.00636432, NaN, NaN, NaN,0.03112983," ""- N/A -   """
3.76,111.932,0.00646428, NaN, NaN, NaN,0.0323506," ""- N/A -   """
3.82,113.465,0.006555911, NaN, NaN, NaN,0.0347922," ""- N/A -   """
3.88,115.471,0.006650321, NaN, NaN, NaN,0.0384545," ""- N/A -   """
3.94,117.358,0.006750284, NaN, NaN, NaN,0.0372337," ""- N/A -   """
4,119.245,0.00684747, NaN, NaN, NaN,0.0384545," ""- N/A -   """
4.06,120.896,0.006936326, NaN, NaN, NaN,0.0433376," ""- N/A -   """
4.12,122.665,0.00702796, NaN, NaN, NaN,0.04699994," ""- N/A -   """
4.18,124.67,0.00713348, NaN, NaN, NaN,0.0445584," ""- N/A -   """
4.24,127.147,0.007252876, NaN, NaN, NaN,0.03601294," ""- N/A -   """
4.3,129.27,0.007363946, NaN, NaN, NaN,0.03112983," ""- N/A -   """
4.36,131.1576,0.007466686, NaN, NaN, NaN,0.0299091," ""- N/A -   """
4.42,132.9268,0.007558319, NaN, NaN, NaN,0.0335714," ""- N/A -   """
4.48,134.696,0.00765273, NaN, NaN, NaN,0.03601294," ""- N/A -   """
4.54,137.055,0.007766575, NaN, NaN, NaN,0.0299091," ""- N/A -   """
4.6,138.824,0.007863762, NaN, NaN, NaN,0.03112983," ""- N/A -   """
4.66,140.711,0.007958171, NaN, NaN, NaN,0.0335714," ""- N/A -   """
4.72,142.5985,0.008055357, NaN, NaN, NaN,0.0347922," ""- N/A -   """
4.78,144.486,0.00815532, NaN, NaN, NaN,0.0347922," ""- N/A -   """
4.84,146.137,0.0082414, NaN, NaN, NaN,0.04089605," ""- N/A -   """
4.9,148.024,0.008338586, NaN, NaN, NaN,0.0433376," ""- N/A -   """
4.96,150.029,0.008435773, NaN, NaN, NaN,0.0433376," ""- N/A -   """
5.02,151.798,0.008532958, NaN, NaN, NaN,0.0445584," ""- N/A -   """
5.08,153.686,0.008630145, NaN, NaN, NaN,0.04577916," ""- N/A -   """
5.14,156.2804,0.008749546, NaN, NaN, NaN,0.0372337," ""- N/A -   """
5.2,158.521,0.008863392, NaN, NaN, NaN,0.03112983," ""- N/A -   """
5.26,160.5265,0.008968908, NaN, NaN, NaN,0.0286883," ""- N/A -   """
5.32,162.414,0.009068872, NaN, NaN, NaN,0.0286883," ""- N/A -   """
5.38,164.183,0.00915773, NaN, NaN, NaN,0.0335714," ""- N/A -   """
5.44,165.834,0.009246584, NaN, NaN, NaN,0.0384545," ""- N/A -   """
5.5,167.603,0.009338217, NaN, NaN, NaN,0.04211683," ""- N/A -   """
5.56,169.726,0.009435403, NaN, NaN, NaN,0.0433376," ""- N/A -   """
5.62,171.849,0.009543696, NaN, NaN, NaN,0.0396753," ""- N/A -   """
5.68,174.208,0.00966032, NaN, NaN, NaN,0.0335714," ""- N/A -   """
5.74,176.214,0.009763059, NaN, NaN, NaN,0.03112983," ""- N/A -   """
5.8,177.983,0.009857468, NaN, NaN, NaN,0.0335714," ""- N/A -   """
5.86,180.106,0.009962985, NaN, NaN, NaN,0.03112983," ""- N/A -   """
5.92,182.229,0.0100713, NaN, NaN, NaN,0.0274675," ""- N/A -   """
5.98,184.234,0.0101685, NaN, NaN, NaN,0.0286883," ""- N/A -   """
6.04,185.767,0.0102518, NaN, NaN, NaN,0.03601294," ""- N/A -   """
6.1,187.419,0.01033507, NaN, NaN, NaN,0.0433376," ""- N/A -   """
[...]
35.01,1288.83,0.058545, NaN, NaN, NaN,0.0323506," ""- N/A -   """
35.26,1299.09,0.05896155, NaN, NaN, NaN,0.0323506," ""- N/A -   """
35.51,1308.98,0.0593614, NaN, NaN, NaN,0.0396753," ""- N/A -   """
35.76,1319.48,0.0597862, NaN, NaN, NaN,0.03601294," ""- N/A -   """
36.01,1330.33,0.0602166, NaN, NaN, NaN,0.0299091," ""- N/A -   """
36.26,1339.75,0.06059983, NaN, NaN, NaN,0.0445584," ""- N/A -   """
36.51,1351.08,0.06104411, NaN, NaN, NaN,0.0323506," ""- N/A -   """
36.76,1360.98,0.061444, NaN, NaN, NaN,0.0396753," ""- N/A -   """
37.01,1371.11,0.0618577, NaN, NaN, NaN,0.04211683," ""- N/A -   """
37.26,1382.44,0.0622937, NaN, NaN, NaN,0.0323506," ""- N/A -   """
37.51,1391.98,0.06268795, NaN, NaN, NaN,0.04211683," ""- N/A -   """
37.76,1403.55,0.0631322, NaN, NaN, NaN,0.0299091," ""- N/A -   """
38.01,1413.33,0.06352653, NaN, NaN, NaN,0.0396753," ""- N/A -   """
38.26,1423.47,0.0639319, NaN, NaN, NaN,0.0445584," ""- N/A -   """
38.51,1435.15,0.06437899, NaN, NaN, NaN,0.03112983," ""- N/A -   """
38.76,1445.05,0.06478162, NaN, NaN, NaN,0.0372337," ""- N/A -   """
39.01,1455.42,0.06519536, NaN, NaN, NaN,0.0396753," ""- N/A -   """
39.26,1466.52,0.06562853, NaN, NaN, NaN,0.0323506," ""- N/A -   """
39.51,1476.77,0.06603116, NaN, NaN, NaN,0.0372337," ""- N/A -   """
39.76,1487.38,0.06644767, NaN, NaN, NaN,0.0384545," ""- N/A -   """
40.01,1498.24,0.0668808, NaN, NaN, NaN,0.03112983," ""- N/A -   """
40.26,1507.9,0.067264, NaN, NaN, NaN,0.04577916," ""- N/A -   """
40.51,1518.99,0.06770276, NaN, NaN, NaN,0.03601294," ""- N/A -   """
40.76,1529.48,0.06812205, NaN, NaN, NaN,0.03601294," ""- N/A -   """
41.01,1539.62,0.06852469, NaN, NaN, NaN,0.04211683," ""- N/A -   """
41.26,1551.065,0.06897174, NaN, NaN, NaN,0.0274675," ""- N/A -   """
41.51,1561.2,0.06937437, NaN, NaN, NaN,0.0335714," ""- N/A -   """
41.76,1571.58,0.0697881, NaN, NaN, NaN,0.03601294," ""- N/A -   """
42.01,1582.07,0.0702046, NaN, NaN, NaN,0.03601294," ""- N/A -   """
42.26,1591.97,0.0705989, NaN, NaN, NaN,0.0445584," ""- N/A -   """
42.51,1603.178,0.07103764, NaN, NaN, NaN,0.0347922," ""- N/A -   """
42.76,1613.91,0.07146526, NaN, NaN, NaN,0.03112983," ""- N/A -   """
43.01,1623.57,0.07185678, NaN, NaN, NaN,0.04089605," ""- N/A -   """
43.26,1634.3,0.07228718, NaN, NaN, NaN,0.0347922," ""- N/A -   """
43.51,1644.56,0.07271203, NaN, NaN, NaN,0.03112983," ""- N/A -   """
43.76,1653.62,0.07309522, NaN, NaN, NaN,0.04699994," ""- N/A -   """
44.01,1664.712,0.0735506, NaN, NaN, NaN,0.0286883," ""- N/A -   """
44.26,1673.54,0.0739421, NaN, NaN, NaN,0.04089605," ""- N/A -   """
44.51,-18.3998,0.0747113, NaN, NaN, NaN,-0.276506," ""- N/A -   """
44.76,-19.3434,0.07464187, NaN, NaN, NaN,0.111701," ""- N/A -   """
45.01,-19.2254,0.07519722, NaN, NaN, NaN,0.0494415," ""- N/A -   """
45.26,-19.1075,0.07566094, NaN, NaN, NaN,0.0299091," ""- N/A -   """
45.51,-19.1075,0.0760719, NaN, NaN, NaN,0.03112983," ""- N/A -   """
45.76,-19.1075,0.0764717, NaN, NaN, NaN,0.0396753," ""- N/A -   """
46.01,-19.1075,0.0768966, NaN, NaN, NaN,0.03601294," ""- N/A -   """
46.26,-19.1075,0.0773131, NaN, NaN, NaN,0.0347922," ""- N/A -   """
46.51,-19.1075,0.0777129, NaN, NaN, NaN,0.0433376," ""- N/A -   """
46.76,-18.9895,0.0781489, NaN, NaN, NaN,0.0335714," ""- N/A -   """
47.01,-18.9895,0.07855431, NaN, NaN, NaN,0.0396753," ""- N/A -   """
47.26,-18.9895,0.07897638, NaN, NaN, NaN,0.03601294," ""- N/A -   """
47.51,-18.9895,0.07940955, NaN, NaN, NaN,0.0286883," ""- N/A -   """
47.76,-18.9895,0.07979552, NaN, NaN, NaN,0.04211683," ""- N/A -   """
47.831,-18.9895,0.07991213, NaN, NaN, NaN,0.0445584," ""- N/A -   """

File: Hamel_ForceTest_Bolt2_Test1.csv
Time, Load (lb), Position (in), AxialStrain (in), TransverseStrain (in), Auxiliary (), Control Out (V), Stress (psi)
0.0,1.17947,0.0, NaN, NaN, NaN,0.4315449," ""- N/A -   """
0.00999999,1.41537,0.000166606, NaN, NaN, NaN,0.4315449," ""- N/A -   """
0.02,1.65126,0.000327658, NaN, NaN, NaN,0.433986," ""- N/A -   """
0.03,1.65126,0.0004942621, NaN, NaN, NaN,0.433986," ""- N/A -   """
0.04,2.005107,0.00066642, NaN, NaN, NaN,0.4315449," ""- N/A -   """
0.05,2.12305,0.000835802, NaN, NaN, NaN,0.4303241," ""- N/A -   """
0.06,2.476897,0.001016292, NaN, NaN, NaN,0.4303241," ""- N/A -   """
0.07,2.712792,0.00117457, NaN, NaN, NaN,0.4303241," ""- N/A -   """
0.08,3.06663,0.00133284, NaN, NaN, NaN,0.435207," ""- N/A -   """
0.09,3.42048,0.00149389, NaN, NaN, NaN,0.436428," ""- N/A -   """
0.1,3.774319,0.0016605, NaN, NaN, NaN,0.433986," ""- N/A -   """
0.11,4.12816,0.00183266, NaN, NaN, NaN,0.4315449," ""- N/A -   """
0.12,4.59995,0.002004815, NaN, NaN, NaN,0.429103," ""- N/A -   """
0.13,5.071741,0.00217697, NaN, NaN, NaN,0.4266618," ""- N/A -   """
0.14,5.54353,0.00233803, NaN, NaN, NaN,0.429103," ""- N/A -   """
0.15,6.01532,0.00249908, NaN, NaN, NaN,0.4315449," ""- N/A -   """
0.16,6.369163,0.00266291, NaN, NaN, NaN,0.432766," ""- N/A -   """
0.17,6.84095,0.00283784, NaN, NaN, NaN,0.429103," ""- N/A -   """
0.18,7.1948,0.00300445, NaN, NaN, NaN,0.429103," ""- N/A -   """
0.19,7.784533,0.00317105, NaN, NaN, NaN,0.429103," ""- N/A -   """
0.2,8.138375,0.003337656, NaN, NaN, NaN,0.429103," ""- N/A -   """
0.21,8.492218,0.003498708, NaN, NaN, NaN,0.4315449," ""- N/A -   """
0.22,8.846061,0.00365976, NaN, NaN, NaN,0.433986," ""- N/A -   """
0.23,9.199903,0.00382636, NaN, NaN, NaN,0.433986," ""- N/A -   """
0.24,9.671693,0.00399297, NaN, NaN, NaN,0.433986," ""- N/A -   """
0.25,10.1435,0.004162352, NaN, NaN, NaN,0.432766," ""- N/A -   """
0.26,10.4973,0.00433451, NaN, NaN, NaN,0.4303241," ""- N/A -   """
0.27,10.9691,0.004515, NaN, NaN, NaN,0.427883," ""- N/A -   """
0.28,11.4409,0.004678827, NaN, NaN, NaN,0.429103," ""- N/A -   """
0.29,11.9127,0.004834325, NaN, NaN, NaN,0.4303241," ""- N/A -   """
0.3,12.3845,0.004995377, NaN, NaN, NaN,0.432766," ""- N/A -   """
0.31,12.9742,0.00516198, NaN, NaN, NaN,0.432766," ""- N/A -   """
0.32,13.3281,0.00533136, NaN, NaN, NaN,0.4315449," ""- N/A -   """
0.33,13.9178,0.005503523, NaN, NaN, NaN,0.429103," ""- N/A -   """
0.34,14.3896,0.005667351, NaN, NaN, NaN,0.4315449," ""- N/A -   """
0.35,14.9793,0.00582563, NaN, NaN, NaN,0.435207," ""- N/A -   """
0.36,15.4511,0.00599223, NaN, NaN, NaN,0.43887," ""- N/A -   """
0.37,16.1588,0.00616161, NaN, NaN, NaN,0.437649," ""- N/A -   """
0.38,16.86649,0.00632544, NaN, NaN, NaN,0.435207," ""- N/A -   """
0.39,17.6921,0.00650315, NaN, NaN, NaN,0.4303241," ""- N/A -   """
0.4,18.2819,0.00667254, NaN, NaN, NaN,0.429103," ""- N/A -   """
0.41,18.9895,0.00683914, NaN, NaN, NaN,0.429103," ""- N/A -   """
0.42,19.6972,0.007000192, NaN, NaN, NaN,0.4315449," ""- N/A -   """
0.43,20.4049,0.007161244, NaN, NaN, NaN,0.433986," ""- N/A -   """
0.439,21.1126,0.00732229, NaN, NaN, NaN,0.436428," ""- N/A -   """
0.449,21.93823,0.00749723, NaN, NaN, NaN,0.432766," ""- N/A -   """
0.46,22.7639,0.00767217, NaN, NaN, NaN,0.432766," ""- N/A -   """
0.47,23.5895,0.007841548, NaN, NaN, NaN,0.4315449," ""- N/A -   """
0.48,24.1792,0.007997046, NaN, NaN, NaN,0.432766," ""- N/A -   """
0.49,25.0049,0.008158097, NaN, NaN, NaN,0.435207," ""- N/A -   """
0.5,25.8305,0.00831637, NaN, NaN, NaN,0.43887," ""- N/A -   """
0.51,26.5382,0.008485755, NaN, NaN, NaN,0.437649," ""- N/A -   """
0.52,27.4818,0.008657913, NaN, NaN, NaN,0.435207," ""- N/A -   """
0.53,28.1894,0.008830071, NaN, NaN, NaN,0.432766," ""- N/A -   """
0.54,29.0151,0.008999453, NaN, NaN, NaN,0.4315449," ""- N/A -   """
0.55,29.84071,0.009168835, NaN, NaN, NaN,0.4303241," ""- N/A -   """
0.56,30.6663,0.009329887, NaN, NaN, NaN,0.432766," ""- N/A -   """
0.57,31.492,0.009496491, NaN, NaN, NaN,0.432766," ""- N/A -   """
0.58,32.1997,0.00966032, NaN, NaN, NaN,0.433986," ""- N/A -   """
0.59,33.02529,0.009832479, NaN, NaN, NaN,0.4303241," ""- N/A -   """
0.6,33.9689,0.009999084, NaN, NaN, NaN,0.4303241," ""- N/A -   """
0.61,34.7945,0.0101657, NaN, NaN, NaN,0.4303241," ""- N/A -   """
0.62,35.7381,0.0103323, NaN, NaN, NaN,0.4303241," ""- N/A -   """
0.63,36.44577,0.01049057, NaN, NaN, NaN,0.433986," ""- N/A -   """
0.64,37.2714,0.0106627, NaN, NaN, NaN,0.436428," ""- N/A -   """
0.65,38.215,0.0108266, NaN, NaN, NaN,0.432766," ""- N/A -   """
0.66,39.04061,0.0109959, NaN, NaN, NaN,0.4315449," ""- N/A -   """
0.67,39.8662,0.0111709, NaN, NaN, NaN,0.427883," ""- N/A -   """
0.68,40.8098,0.0113403, NaN, NaN, NaN,0.4266618," ""- N/A -   """
0.69,41.7534,0.0115013, NaN, NaN, NaN,0.429103," ""- N/A -   """
0.7,42.579,0.0116624, NaN, NaN, NaN,0.4315449," ""- N/A -   """
0.71,43.40467,0.0118234, NaN, NaN, NaN,0.433986," ""- N/A -   """
0.72,44.2303,0.01199, NaN, NaN, NaN,0.433986," ""- N/A -   """
0.73,45.05593,0.0121594, NaN, NaN, NaN,0.432766," ""- N/A -   """
0.74,46.11746,0.0123316, NaN, NaN, NaN,0.4303241," ""- N/A -   """
0.75,47.061,0.0125065, NaN, NaN, NaN,0.4303241," ""- N/A -   """
0.76,47.8867,0.0126675, NaN, NaN, NaN,0.432766," ""- N/A -   """
0.77,48.83025,0.0128203, NaN, NaN, NaN,0.435207," ""- N/A -   """
0.78,49.6559,0.01298687, NaN, NaN, NaN,0.435207," ""- N/A -   """
0.79,50.5995,0.0131563, NaN, NaN, NaN,0.433986," ""- N/A -   """
0.8,51.543,0.0133284, NaN, NaN, NaN,0.4315449," ""- N/A -   """
0.81,52.48662,0.0135033, NaN, NaN, NaN,0.427883," ""- N/A -   """
0.82,53.4302,0.01366995, NaN, NaN, NaN,0.427883," ""- N/A -   """
0.83,54.2558,0.0138227, NaN, NaN, NaN,0.433986," ""- N/A -   """
0.84,55.1994,0.0139893, NaN, NaN, NaN,0.433986," ""- N/A -   """
0.85,56.02505,0.014167, NaN, NaN, NaN,0.432766," ""- N/A -   """
0.86,56.9686,0.0143308, NaN, NaN, NaN,0.433986," ""- N/A -   """
0.87,57.79426,0.0144919, NaN, NaN, NaN,0.432766," ""- N/A -   """
0.88,58.6199,0.01466125, NaN, NaN, NaN,0.4315449," ""- N/A -   """
0.89,59.5635,0.0148251, NaN, NaN, NaN,0.432766," ""- N/A -   """
0.9,60.3891,0.0149889, NaN, NaN, NaN,0.433986," ""- N/A -   """
0.91,61.09679,0.0151555, NaN, NaN, NaN,0.433986," ""- N/A -   """
0.92,62.1583,0.01531934, NaN, NaN, NaN,0.435207," ""- N/A -   """
0.93,62.98395,0.0154943, NaN, NaN, NaN,0.435207," ""- N/A -   """
0.94,63.92753,0.0156692, NaN, NaN, NaN,0.432766," ""- N/A -   """
0.95,64.75317,0.015833, NaN, NaN, NaN,0.429103," ""- N/A -   """
0.96,65.5788,0.0159996, NaN, NaN, NaN,0.429103," ""- N/A -   """
0.97,66.40443,0.01615792, NaN, NaN, NaN,0.432766," ""- N/A -   """
0.98,67.23006,0.0163217, NaN, NaN, NaN,0.433986," ""- N/A -   """
0.99,68.17364,0.0164856, NaN, NaN, NaN,0.435207," ""- N/A -   """
1.0,68.9993,0.0166577, NaN, NaN, NaN,0.432766," ""- N/A -   """
1.01,69.8249,0.0168271, NaN, NaN, NaN,0.4315449," ""- N/A -   """
1.02,70.7685,0.0169937, NaN, NaN, NaN,0.4315449," ""- N/A -   """
1.03,71.59412,0.0171603, NaN, NaN, NaN,0.4315449," ""- N/A -   """
1.04,72.41975,0.0173186, NaN, NaN, NaN,0.435207," ""- N/A -   """
1.05,73.2454,0.01748243, NaN, NaN, NaN,0.436428," ""- N/A -   """
1.06,74.189,0.017649, NaN, NaN, NaN,0.436428," ""- N/A -   """
1.07,75.13254,0.0178267, NaN, NaN, NaN,0.4315449," ""- N/A -   """
[...]
22.25,-0.94358,0.370735, NaN, NaN, NaN,0.427883," ""- N/A -   """
22.26,-0.94358,0.3708935, NaN, NaN, NaN,0.4315449," ""- N/A -   """
22.27,-0.94358,0.371049, NaN, NaN, NaN,0.432766," ""- N/A -   """
22.28,-0.94358,0.3712156, NaN, NaN, NaN,0.435207," ""- N/A -   """
22.29,-1.06153,0.371379, NaN, NaN, NaN,0.433986," ""- N/A -   """
22.3,-0.94358,0.371552, NaN, NaN, NaN,0.4315449," ""- N/A -   """
22.31,-0.94358,0.3717182, NaN, NaN, NaN,0.4303241," ""- N/A -   """
22.32,-0.94358,0.3718876, NaN, NaN, NaN,0.429103," ""- N/A -   """
22.33,-0.94358,0.372057, NaN, NaN, NaN,0.432766," ""- N/A -   """
22.34,-0.94358,0.372221, NaN, NaN, NaN,0.432766," ""- N/A -   """
22.35,-0.94358,0.37239, NaN, NaN, NaN,0.4315449," ""- N/A -   """
22.36,-1.06153,0.37256, NaN, NaN, NaN,0.4303241," ""- N/A -   """
22.37,-0.94358,0.372726, NaN, NaN, NaN,0.4303241," ""- N/A -   """
22.38,-1.06153,0.372887, NaN, NaN, NaN,0.429103," ""- N/A -   """
22.39,-0.94358,0.373051, NaN, NaN, NaN,0.4303241," ""- N/A -   """
22.4,-1.06153,0.3732121, NaN, NaN, NaN,0.432766," ""- N/A -   """
22.41,-0.94358,0.3733815, NaN, NaN, NaN,0.4315449," ""- N/A -   """
22.42,-0.94358,0.3735481, NaN, NaN, NaN,0.4315449," ""- N/A -   """
22.43,-0.94358,0.3737147, NaN, NaN, NaN,0.4315449," ""- N/A -   """
22.44,-0.94358,0.373884, NaN, NaN, NaN,0.4303241," ""- N/A -   """
22.45,-0.94358,0.374056, NaN, NaN, NaN,0.432766," ""- N/A -   """
22.46,-1.06153,0.374223, NaN, NaN, NaN,0.432766," ""- N/A -   """
22.47,-0.94358,0.374381, NaN, NaN, NaN,0.435207," ""- N/A -   """
22.48,-1.06153,0.374539, NaN, NaN, NaN,0.436428," ""- N/A -   """
22.49,-0.94358,0.374706, NaN, NaN, NaN,0.436428," ""- N/A -   """
22.5,-0.94358,0.3748726, NaN, NaN, NaN,0.436428," ""- N/A -   """
22.51,-0.94358,0.375045, NaN, NaN, NaN,0.435207," ""- N/A -   """
22.52,-0.94358,0.37522, NaN, NaN, NaN,0.4303241," ""- N/A -   """
22.53,-0.94358,0.3753863, NaN, NaN, NaN,0.4303241," ""- N/A -   """
22.54,-0.94358,0.375547, NaN, NaN, NaN,0.432766," ""- N/A -   """
22.55,-1.06153,0.375711, NaN, NaN, NaN,0.433986," ""- N/A -   """
22.56,-1.06153,0.375875, NaN, NaN, NaN,0.435207," ""- N/A -   """
22.57,-0.94358,0.376047, NaN, NaN, NaN,0.432766," ""- N/A -   """
22.58,-0.825632,0.376225, NaN, NaN, NaN,0.4266618," ""- N/A -   """
22.59,-1.06153,0.3763915, NaN, NaN, NaN,0.4266618," ""- N/A -   """
22.6,-1.06153,0.376555, NaN, NaN, NaN,0.427883," ""- N/A -   """
22.61,-1.06153,0.376714, NaN, NaN, NaN,0.4315449," ""- N/A -   """
22.62,-0.94358,0.3768774, NaN, NaN, NaN,0.432766," ""- N/A -   """
22.63,-1.06153,0.37705, NaN, NaN, NaN,0.4303241," ""- N/A -   """
22.64,-0.825632,0.3772245, NaN, NaN, NaN,0.4303241," ""- N/A -   """
22.65,-0.94358,0.377397, NaN, NaN, NaN,0.427883," ""- N/A -   """
22.66,-0.94358,0.377563, NaN, NaN, NaN,0.4266618," ""- N/A -   """
22.67,-0.94358,0.377722, NaN, NaN, NaN,0.4266618," ""- N/A -   """
22.68,-0.94358,0.377877, NaN, NaN, NaN,0.4315449," ""- N/A -   """
22.69,-0.94358,0.378046, NaN, NaN, NaN,0.4303241," ""- N/A -   """
22.7,-0.94358,0.378213, NaN, NaN, NaN,0.4303241," ""- N/A -   """
22.71,-1.06153,0.37838, NaN, NaN, NaN,0.4303241," ""- N/A -   """
22.72,-1.06153,0.378549, NaN, NaN, NaN,0.429103," ""- N/A -   """
22.73,-0.94358,0.378716, NaN, NaN, NaN,0.429103," ""- N/A -   """
22.74,-1.06153,0.378877, NaN, NaN, NaN,0.4315449," ""- N/A -   """
22.75,-0.94358,0.379046, NaN, NaN, NaN,0.435207," ""- N/A -   """
22.76,-0.94358,0.379204, NaN, NaN, NaN,0.433986," ""- N/A -   """
22.77,-1.06153,0.379371, NaN, NaN, NaN,0.433986," ""- N/A -   """
22.78,-0.94358,0.379538, NaN, NaN, NaN,0.433986," ""- N/A -   """
22.79,-0.94358,0.379707, NaN, NaN, NaN,0.4315449," ""- N/A -   """