Folder: DigitalTwins-Machine-Learning/2_Tensile_Data (part 39)

File: Hamel_ForceTest_Bolt9_Test11.csv
Time, Load (lb), Position (in), AxialStrain (in), TransverseStrain (in), Auxiliary (), Control Out (V), Stress (psi)
0.0, 14.0357, 0.0, NaN, NaN, NaN, -0.007935055, "- N/A -   "
0.01, 14.0357, 0.0, NaN, NaN, NaN, -6.103888E-4, "- N/A -   "
0.02, 14.0357, 0.0, NaN, NaN, NaN, 0.007935055, "- N/A -   "
0.03, 14.0357, 2.776752E-6, NaN, NaN, NaN, 0.0262467, "- N/A -   "
0.04, 14.0357, 8.330256E-6, NaN, NaN, NaN, 0.0445584, "- N/A -   "
0.05, 14.1537, 1.94373e-05, NaN, NaN, NaN, 0.0579869, "- N/A -   "
0.06, 14.5075, 3.60978e-05, NaN, NaN, NaN, 0.07141549, "- N/A -   "
0.07, 14.9793, 5.83118e-05, NaN, NaN, NaN, 0.08118171, "- N/A -   "
0.08, 15.3332, 8.05258E-5, NaN, NaN, NaN, 0.0897272, "- N/A -   "
0.09, 15.805, 0.000108293, NaN, NaN, NaN, 0.09705182, "- N/A -   "
0.1, 16.3947, 1.388376E-4, NaN, NaN, NaN, 0.09949338, "- N/A -   "
0.11, 17.1024, 0.000172159, NaN, NaN, NaN, 0.09338949, "- N/A -   "
0.12, 17.5742, 0.000202703, NaN, NaN, NaN, 0.0872856, "- N/A -   "
0.13, 18.046, 0.000227694, NaN, NaN, NaN, 0.08240249, "- N/A -   "
0.14, 18.3998, 0.000255461, NaN, NaN, NaN, 0.07874016, "- N/A -   "
0.15, 18.8716, 2.776752E-4, NaN, NaN, NaN, 0.0750778, "- N/A -   "
0.16, 19.1075, 0.000302666, NaN, NaN, NaN, 0.07263627, "- N/A -   "
0.17, 19.4613, 3.221032E-4, NaN, NaN, NaN, 0.0701947, "- N/A -   "
0.18, 19.8152, 0.000344317, NaN, NaN, NaN, 0.06775316, "- N/A -   "
0.19, 20.169, 0.000366531, NaN, NaN, NaN, 0.06653238, "- N/A -   "
0.2, 20.4049, 0.000383192, NaN, NaN, NaN, 0.0653116, "- N/A -   "
0.21, 20.7588, 0.000402629, NaN, NaN, NaN, 0.0640908, "- N/A -   "
0.22, 20.99465, 0.000422066, NaN, NaN, NaN, 0.06287005, "- N/A -   "
0.23, 21.3485, 4.387268E-4, NaN, NaN, NaN, 0.06287005, "- N/A -   "
0.24, 21.5844, 0.000458164, NaN, NaN, NaN, 0.06287005, "- N/A -   "
0.25, 21.93823, 0.000474825, NaN, NaN, NaN, 0.06164927, "- N/A -   "
0.26, 22.1741, 4.942618E-4, NaN, NaN, NaN, 0.0604285, "- N/A -   "
0.27, 22.41, 5.136991E-4, NaN, NaN, NaN, 0.0592077, "- N/A -   "
0.28, 22.7639, 0.000533136, NaN, NaN, NaN, 0.0579869, "- N/A -   "
0.29, 23.1177, 5.525736E-4, NaN, NaN, NaN, 0.05676616, "- N/A -   "
0.3, 23.3536, 5.747876E-4, NaN, NaN, NaN, 0.0543246, "- N/A -   "
0.31, 23.7074, 5.942249E-4, NaN, NaN, NaN, 0.0531038, "- N/A -   "
0.32, 24.0613, 6.164389E-4, NaN, NaN, NaN, 0.05066227, "- N/A -   "
0.33, 24.29718, 0.000635876, NaN, NaN, NaN, 0.0494415, "- N/A -   "
0.34, 24.65102, 0.00065809, NaN, NaN, NaN, 0.0482207, "- N/A -   "
0.35, 24.8869, 0.000677527, NaN, NaN, NaN, 0.04577916, "- N/A -   "
0.36, 25.1228, 0.000694188, NaN, NaN, NaN, 0.04577916, "- N/A -   "
0.37, 25.3587, 7.108485E-4, NaN, NaN, NaN, 0.04577916, "- N/A -   "
0.38, 25.5946, 7.302857E-4, NaN, NaN, NaN, 0.0445584, "- N/A -   "
0.39, 25.8305, 0.000746946, NaN, NaN, NaN, 0.0445584, "- N/A -   "
0.4, 26.0664, 0.000763607, NaN, NaN, NaN, 0.04577916, "- N/A -   "
0.41, 26.4202, 0.000780267, NaN, NaN, NaN, 0.0445584, "- N/A -   "
0.42, 26.6561, 7.997045E-4, NaN, NaN, NaN, 0.0445584, "- N/A -   "
0.43, 26.892, 8.16365E-4, NaN, NaN, NaN, 0.0433376, "- N/A -   "
0.44, 27.1279, 8.358023E-4, NaN, NaN, NaN, 0.04211683, "- N/A -   "
0.45, 27.3638, 8.524628E-4, NaN, NaN, NaN, 0.04211683, "- N/A -   "
0.46, 27.5997, 0.0008719, NaN, NaN, NaN, 0.04211683, "- N/A -   "
0.47, 27.95355, 8.885606E-4, NaN, NaN, NaN, 0.04089605, "- N/A -   "
0.48, 28.3074, 0.000907998, NaN, NaN, NaN, 0.0396753, "- N/A -   "
0.49, 28.54329, 9.274351E-4, NaN, NaN, NaN, 0.0384545, "- N/A -   "
0.5, 28.7792, 9.440956E-4, NaN, NaN, NaN, 0.0384545, "- N/A -   "
0.51, 29.0151, 9.635329E-4, NaN, NaN, NaN, 0.0372337, "- N/A -   "
0.54, 29.9587, 0.00102184, NaN, NaN, NaN, 0.0335714, "- N/A -   "
0.57, 30.6663, 0.001074603, NaN, NaN, NaN, 0.0323506, "- N/A -   "
0.6, 31.374, 0.001130138, NaN, NaN, NaN, 0.0299091, "- N/A -   "
0.63, 32.1997, 0.00118012, NaN, NaN, NaN, 0.03112983, "- N/A -   "
0.66, 32.9073, 0.00122732, NaN, NaN, NaN, 0.0323506, "- N/A -   "
0.69, 33.61503, 0.00127731, NaN, NaN, NaN, 0.0323506, "- N/A -   "
0.72, 34.2048, 0.00132173, NaN, NaN, NaN, 0.0347922, "- N/A -   "
0.75, 34.9125, 0.00136339, NaN, NaN, NaN, 0.0372337, "- N/A -   "
0.78, 35.6201, 0.00141059, NaN, NaN, NaN, 0.0396753, "- N/A -   "
0.81, 36.2099, 0.001455018, NaN, NaN, NaN, 0.04211683, "- N/A -   "
0.84, 37.0355, 0.00150222, NaN, NaN, NaN, 0.04211683, "- N/A -   "
0.87, 37.6252, 0.00154665, NaN, NaN, NaN, 0.0445584, "- N/A -   "
0.9, 38.5688, 0.001599409, NaN, NaN, NaN, 0.0433376, "- N/A -   "
0.93, 39.3945, 0.00164939, NaN, NaN, NaN, 0.0433376, "- N/A -   "
0.96, 40.10214, 0.0016966, NaN, NaN, NaN, 0.0445584, "- N/A -   "
0.99, 40.9278, 0.00174935, NaN, NaN, NaN, 0.0433376, "- N/A -   "
1.02, 41.9893, 0.00180767, NaN, NaN, NaN, 0.04089605, "- N/A -   "
1.05, 42.8149, 0.00186042, NaN, NaN, NaN, 0.0384545, "- N/A -   "
1.08, 43.87646, 0.00192151, NaN, NaN, NaN, 0.0347922, "- N/A -   "
1.11, 44.82, 0.00197982, NaN, NaN, NaN, 0.03112983, "- N/A -   "
1.14, 45.76362, 0.00203536, NaN, NaN, NaN, 0.0274675, "- N/A -   "
1.17, 46.4713, 0.00207979, NaN, NaN, NaN, 0.0299091, "- N/A -   "
1.2, 47.4149, 0.00212977, NaN, NaN, NaN, 0.0299091, "- N/A -   "
1.23, 48.2405, 0.00217975, NaN, NaN, NaN, 0.0299091, "- N/A -   "
1.26, 48.9482, 0.002226955, NaN, NaN, NaN, 0.03112983, "- N/A -   "
1.29, 49.6559, 0.002271383, NaN, NaN, NaN, 0.0335714, "- N/A -   "
1.32, 50.5995, 0.00232136, NaN, NaN, NaN, 0.0347922, "- N/A -   "
1.35, 51.4251, 0.00236857, NaN, NaN, NaN, 0.03601294, "- N/A -   "
1.38, 52.1328, 0.00241577, NaN, NaN, NaN, 0.03601294, "- N/A -   "
1.41, 53.19431, 0.00246853, NaN, NaN, NaN, 0.0347922, "- N/A -   "
1.44, 54.0199, 0.00251296, NaN, NaN, NaN, 0.0372337, "- N/A -   "
1.47, 54.8456, 0.00256017, NaN, NaN, NaN, 0.0384545, "- N/A -   "
1.5, 55.6712, 0.00260459, NaN, NaN, NaN, 0.04089605, "- N/A -   "
1.53, 56.4968, 0.002651798, NaN, NaN, NaN, 0.04211683, "- N/A -   "
1.56, 57.32247, 0.002699, NaN, NaN, NaN, 0.0433376, "- N/A -   "
1.59, 58.1481, 0.00274621, NaN, NaN, NaN, 0.04577916, "- N/A -   "
1.62, 59.2096, 0.00279619, NaN, NaN, NaN, 0.0445584, "- N/A -   "
1.65, 60.15321, 0.00285172, NaN, NaN, NaN, 0.04211683, "- N/A -   "
1.68, 61.45063, 0.00291281, NaN, NaN, NaN, 0.0384545, "- N/A -   "
1.71, 62.5122, 0.00297112, NaN, NaN, NaN, 0.0335714, "- N/A -   "
1.74, 63.5737, 0.00302388, NaN, NaN, NaN, 0.0323506, "- N/A -   "
1.77, 64.3993, 0.00307109, NaN, NaN, NaN, 0.0335714, "- N/A -   "
1.8, 65.4608, 0.003123846, NaN, NaN, NaN, 0.0323506, "- N/A -   "
1.83, 66.2865, 0.003168274, NaN, NaN, NaN, 0.0347922, "- N/A -   "
1.86, 67.1121, 0.00321826, NaN, NaN, NaN, 0.0347922, "- N/A -   "
1.89, 68.05569, 0.003268237, NaN, NaN, NaN, 0.03601294, "- N/A -   "
1.92, 69.11722, 0.00331544, NaN, NaN, NaN, 0.03601294, "- N/A -   "
1.95, 70.0608, 0.0033682, NaN, NaN, NaN, 0.0347922, "- N/A -   "
1.98, 71.12233, 0.00342096, NaN, NaN, NaN, 0.0335714, "- N/A -   "
2.01, 72.3018, 0.00347094, NaN, NaN, NaN, 0.0335714, "- N/A -   "
2.04, 73.2454, 0.00352092, NaN, NaN, NaN, 0.0335714, "- N/A -   "
2.07, 74.3069, 0.0035709, NaN, NaN, NaN, 0.0347922, "- N/A -   "
2.1, 75.13254, 0.003615331, NaN, NaN, NaN, 0.03601294, "- N/A -   "
2.13, 76.19407, 0.00366254, NaN, NaN, NaN, 0.0372337, "- N/A -   "
2.16, 76.90175, 0.00370696, NaN, NaN, NaN, 0.04089605, "- N/A -   "
2.19, 77.84533, 0.00375139, NaN, NaN, NaN, 0.04211683, "- N/A -   "
[...]
47.16, -1.65126, 0.07873202, NaN, NaN, NaN, 0.0335714, "- N/A -   "
47.21, -1.65126, 0.078807, NaN, NaN, NaN, 0.03601294, "- N/A -   "
47.26, -1.65126, 0.07888474, NaN, NaN, NaN, 0.0396753, "- N/A -   "
47.31, -1.65126, 0.07896528, NaN, NaN, NaN, 0.04089605, "- N/A -   "
47.36, -1.65126, 0.07903747, NaN, NaN, NaN, 0.0445584, "- N/A -   "
47.41, -1.65126, 0.07912354, NaN, NaN, NaN, 0.0433376, "- N/A -   "
47.46, -1.53332, 0.0792152, NaN, NaN, NaN, 0.0396753, "- N/A -   "
47.51, -1.76921, 0.07931237, NaN, NaN, NaN, 0.0335714, "- N/A -   "
47.56, -1.76921, 0.07939844, NaN, NaN, NaN, 0.0323506, "- N/A -   "
47.61, -1.65126, 0.07948452, NaN, NaN, NaN, 0.03112983, "- N/A -   "
47.66, -1.65126, 0.0795734, NaN, NaN, NaN, 0.0299091, "- N/A -   "
47.71, -1.65126, 0.07965668, NaN, NaN, NaN, 0.0286883, "- N/A -   "
47.76, -1.65126, 0.07973999, NaN, NaN, NaN, 0.0286883, "- N/A -   "
47.81, -1.65126, 0.07982051, NaN, NaN, NaN, 0.0299091, "- N/A -   "
47.86, -1.65126, 0.07989548, NaN, NaN, NaN, 0.0335714, "- N/A -   "
47.91, -1.65126, 0.0799649, NaN, NaN, NaN, 0.0396753, "- N/A -   "
47.96, -1.53332, 0.0800371, NaN, NaN, NaN, 0.04577916, "- N/A -   "
48.01, -1.65126, 0.08011762, NaN, NaN, NaN, 0.04577916, "- N/A -   "
48.06, -1.53332, 0.08020648, NaN, NaN, NaN, 0.0433376, "- N/A -   "
48.11, -1.65126, 0.08030089, NaN, NaN, NaN, 0.0384545, "- N/A -   "
48.16, -1.65126, 0.0803925, NaN, NaN, NaN, 0.0347922, "- N/A -   "
48.21, -1.65126, 0.08047582, NaN, NaN, NaN, 0.0347922, "- N/A -   "
48.26, -1.65126, 0.0805647, NaN, NaN, NaN, 0.0323506, "- N/A -   "
48.31, -1.53332, 0.0806508, NaN, NaN, NaN, 0.03112983, "- N/A -   "
48.36, -1.53332, 0.0807424, NaN, NaN, NaN, 0.0286883, "- N/A -   "
48.41, -1.65126, 0.0808257, NaN, NaN, NaN, 0.0274675, "- N/A -   "
48.46, -1.65126, 0.08090344, NaN, NaN, NaN, 0.0299091, "- N/A -   "
48.51, -1.65126, 0.0809812, NaN, NaN, NaN, 0.0335714, "- N/A -   "
48.56, -1.53332, 0.08105061, NaN, NaN, NaN, 0.0384545, "- N/A -   "
48.61, -1.65126, 0.08112837, NaN, NaN, NaN, 0.04211683, "- N/A -   "
48.66, -1.65126, 0.08120889, NaN, NaN, NaN, 0.04211683, "- N/A -   "
48.71, -1.53332, 0.08129219, NaN, NaN, NaN, 0.0433376, "- N/A -   "
48.76, -1.65126, 0.08137827, NaN, NaN, NaN, 0.04089605, "- N/A -   "
48.81, -1.53332, 0.0814699, NaN, NaN, NaN, 0.0384545, "- N/A -   "
48.86, -1.53332, 0.0815643, NaN, NaN, NaN, 0.0323506, "- N/A -   "
48.91, -1.53332, 0.08165317, NaN, NaN, NaN, 0.03112983, "- N/A -   "
48.96, -1.53332, 0.0817337, NaN, NaN, NaN, 0.0323506, "- N/A -   "
49.01, -1.53332, 0.08181699, NaN, NaN, NaN, 0.0323506, "- N/A -   "
49.06, -1.65126, 0.0819003, NaN, NaN, NaN, 0.0323506, "- N/A -   "
49.11, -1.65126, 0.081978, NaN, NaN, NaN, 0.0347922, "- N/A -   "
49.16, -1.53332, 0.0820558, NaN, NaN, NaN, 0.0372337, "- N/A -   "
49.21, -1.65126, 0.0821419, NaN, NaN, NaN, 0.03601294, "- N/A -   "
49.26, -1.65126, 0.0822168, NaN, NaN, NaN, 0.0396753, "- N/A -   "
49.31, -1.53332, 0.0822946, NaN, NaN, NaN, 0.04211683, "- N/A -   "
49.36, -1.65126, 0.0823723, NaN, NaN, NaN, 0.0445584, "- N/A -   "
49.41, -1.53332, 0.0824612, NaN, NaN, NaN, 0.0433376, "- N/A -   "
49.46, -1.65126, 0.08256116, NaN, NaN, NaN, 0.03601294, "- N/A -   "
49.51, -1.53332, 0.0826528, NaN, NaN, NaN, 0.0323506, "- N/A -   "
49.56, -1.53332, 0.08274165, NaN, NaN, NaN, 0.0286883, "- N/A -   "
49.61, -1.53332, 0.0828138, NaN, NaN, NaN, 0.0335714, "- N/A -   "
49.66, -1.53332, 0.0828916, NaN, NaN, NaN, 0.03601294, "- N/A -   "
49.71, -1.53332, 0.0829693, NaN, NaN, NaN, 0.0384545, "- N/A -   "
49.76, -1.65126, 0.08306375, NaN, NaN, NaN, 0.0335714, "- N/A -   "
49.768, -1.53332, 0.08307764, NaN, NaN, NaN, 0.0335714, "- N/A -   "

File: Hamel_ForceTest_Bolt10_Test1.csv
Time, Load (lb), Position (in), AxialStrain (in), TransverseStrain (in), Auxiliary (), Control Out (V), Stress (psi)
0.0,1.06153,0.0, NaN, NaN, NaN,0.08606482," ""- N/A -   """
0.01,1.41537,2.77675e-05, NaN, NaN, NaN,0.09338949," ""- N/A -   """
0.06,3.53842,0.0001610516, NaN, NaN, NaN,0.0762986," ""- N/A -   """
0.11,5.071741,0.000261015, NaN, NaN, NaN,0.0689739," ""- N/A -   """
0.16,6.369163,0.000360978, NaN, NaN, NaN,0.06164927," ""- N/A -   """
0.21,7.666586,0.0004609408, NaN, NaN, NaN,0.0543246," ""- N/A -   """
0.26,8.964007,0.0005553504, NaN, NaN, NaN,0.05066227," ""- N/A -   """
0.31,10.26143,0.0006497599, NaN, NaN, NaN,0.04577916," ""- N/A -   """
0.36,11.7947,0.000749723, NaN, NaN, NaN,0.0372337," ""- N/A -   """
0.41,13.09217,0.0008469093, NaN, NaN, NaN,0.0323506," ""- N/A -   """
0.46,14.2716,0.0009274351, NaN, NaN, NaN,0.0323506," ""- N/A -   """
0.51,15.5691,0.00101074, NaN, NaN, NaN,0.0323506," ""- N/A -   """
0.56,16.6306,0.00108849, NaN, NaN, NaN,0.0347922," ""- N/A -   """
0.61,17.8101,0.00116901, NaN, NaN, NaN,0.03601294," ""- N/A -   """
0.66,18.9895,0.00125232, NaN, NaN, NaN,0.03601294," ""- N/A -   """
0.71,20.4049,0.00133284, NaN, NaN, NaN,0.0372337," ""- N/A -   """
0.76,21.46644,0.00141059, NaN, NaN, NaN,0.04089605," ""- N/A -   """
0.81,22.528,0.00148279, NaN, NaN, NaN,0.0445584," ""- N/A -   """
0.86,23.7074,0.00156053, NaN, NaN, NaN,0.04699994," ""- N/A -   """
0.91,25.1228,0.00164939, NaN, NaN, NaN,0.04577916," ""- N/A -   """
0.96,26.7741,0.00174935, NaN, NaN, NaN,0.0372337," ""- N/A -   """
1.01,28.1894,0.00184654, NaN, NaN, NaN,0.03112983," ""- N/A -   """
1.06,29.6048,0.00193262, NaN, NaN, NaN,0.0299091," ""- N/A -   """
1.11,30.78429,0.00201592, NaN, NaN, NaN,0.0299091," ""- N/A -   """
1.16,31.9638,0.00209089, NaN, NaN, NaN,0.0335714," ""- N/A -   """
1.21,33.1432,0.00217142, NaN, NaN, NaN,0.0347922," ""- N/A -   """
1.26,34.4407,0.00225195, NaN, NaN, NaN,0.03601294," ""- N/A -   """
1.31,35.85603,0.00234358, NaN, NaN, NaN,0.0323506," ""- N/A -   """
1.36,37.15345,0.0024241, NaN, NaN, NaN,0.0335714," ""- N/A -   """
1.41,38.3329,0.0024963, NaN, NaN, NaN,0.0384545," ""- N/A -   """
1.46,39.5124,0.00257127, NaN, NaN, NaN,0.04211683," ""- N/A -   """
1.51,40.9278,0.00265457, NaN, NaN, NaN,0.04211683," ""- N/A -   """
1.56,42.3431,0.002743431, NaN, NaN, NaN,0.0396753," ""- N/A -   """
1.61,43.6406,0.00283229, NaN, NaN, NaN,0.0384545," ""- N/A -   """
1.66,45.17388,0.00291559, NaN, NaN, NaN,0.0372337," ""- N/A -   """
1.71,46.4713,0.002996115, NaN, NaN, NaN,0.0384545," ""- N/A -   """
1.76,47.65078,0.00307942, NaN, NaN, NaN,0.0396753," ""- N/A -   """
1.81,49.1841,0.003168274, NaN, NaN, NaN,0.03601294," ""- N/A -   """
1.86,50.5995,0.00325713, NaN, NaN, NaN,0.0335714," ""- N/A -   """
1.91,51.89689,0.00334043, NaN, NaN, NaN,0.0335714," ""- N/A -   """
1.96,53.19431,0.00342096, NaN, NaN, NaN,0.0347922," ""- N/A -   """
2.01,54.6097,0.00350704, NaN, NaN, NaN,0.0335714," ""- N/A -   """
2.06,56.02505,0.00359312, NaN, NaN, NaN,0.0335714," ""- N/A -   """
2.11,57.20452,0.00367087, NaN, NaN, NaN,0.0347922," ""- N/A -   """
2.16,58.26605,0.00374862, NaN, NaN, NaN,0.0372337," ""- N/A -   """
2.21,59.68142,0.00382636, NaN, NaN, NaN,0.0396753," ""- N/A -   """
2.26,60.7429,0.00390134, NaN, NaN, NaN,0.0445584," ""- N/A -   """
2.31,62.0404,0.00398464, NaN, NaN, NaN,0.0445584," ""- N/A -   """
2.36,63.45574,0.00407349, NaN, NaN, NaN,0.04089605," ""- N/A -   """
2.41,64.98906,0.00417346, NaN, NaN, NaN,0.0335714," ""- N/A -   """
2.46,66.2865,0.004265091, NaN, NaN, NaN,0.03112983," ""- N/A -   """
2.51,67.23006,0.004340063, NaN, NaN, NaN,0.0335714," ""- N/A -   """
2.56,68.52748,0.004428919, NaN, NaN, NaN,0.03112983," ""- N/A -   """
2.61,69.8249,0.004515, NaN, NaN, NaN,0.0299091," ""- N/A -   """
2.66,70.88643,0.004598301, NaN, NaN, NaN,0.0299091," ""- N/A -   """
2.71,72.06591,0.004681604, NaN, NaN, NaN,0.03112983," ""- N/A -   """
2.76,73.12743,0.004759353, NaN, NaN, NaN,0.0323506," ""- N/A -   """
2.81,73.9531,0.004828772, NaN, NaN, NaN,0.0384545," ""- N/A -   """
2.86,74.7787,0.00489819, NaN, NaN, NaN,0.0445584," ""- N/A -   """
2.91,75.95817,0.004975939, NaN, NaN, NaN,0.04699994," ""- N/A -   """
2.96,76.90175,0.0050648, NaN, NaN, NaN,0.0445584," ""- N/A -   """
3.01,78.19917,0.005161982, NaN, NaN, NaN,0.0396753," ""- N/A -   """
3.06,79.37865,0.005250838, NaN, NaN, NaN,0.03601294," ""- N/A -   """
3.11,80.44018,0.00533692, NaN, NaN, NaN,0.0347922," ""- N/A -   """
3.16,81.38376,0.00542022, NaN, NaN, NaN,0.0347922," ""- N/A -   """
3.21,82.56323,0.00551741, NaN, NaN, NaN,0.0299091," ""- N/A -   """
3.26,83.6248,0.00560349, NaN, NaN, NaN,0.0274675," ""- N/A -   """
3.31,84.45039,0.00568123, NaN, NaN, NaN,0.0299091," ""- N/A -   """
3.36,85.276,0.00576176, NaN, NaN, NaN,0.03112983," ""- N/A -   """
3.41,85.9837,0.00583673, NaN, NaN, NaN,0.0347922," ""- N/A -   """
3.46,86.80934,0.0059117, NaN, NaN, NaN,0.0396753," ""- N/A -   """
3.51,87.63497,0.0059839, NaN, NaN, NaN,0.0433376," ""- N/A -   """
3.56,88.6965,0.00606998, NaN, NaN, NaN,0.0433376," ""- N/A -   """
3.61,89.52213,0.00615328, NaN, NaN, NaN,0.0445584," ""- N/A -   """
3.66,90.34776,0.006233808, NaN, NaN, NaN,0.04577916," ""- N/A -   """
3.71,91.40929,0.006319887, NaN, NaN, NaN,0.0433376," ""- N/A -   """
3.76,92.58876,0.00641985, NaN, NaN, NaN,0.03601294," ""- N/A -   """
3.81,93.8862,0.006519814, NaN, NaN, NaN,0.0286883," ""- N/A -   """
3.86,94.59387,0.006603116, NaN, NaN, NaN,0.0286883," ""- N/A -   """
3.91,95.41951,0.006686419, NaN, NaN, NaN,0.0286883," ""- N/A -   """
3.96,96.12719,0.006764168, NaN, NaN, NaN,0.0323506," ""- N/A -   """
4.01,96.95282,0.006836363, NaN, NaN, NaN,0.03601294," ""- N/A -   """
4.06,97.77845,0.006919666, NaN, NaN, NaN,0.0372337," ""- N/A -   """
4.11,98.83998,0.00700297, NaN, NaN, NaN,0.03601294," ""- N/A -   """
4.16,99.66561,0.007083494, NaN, NaN, NaN,0.0372337," ""- N/A -   """
4.21,100.3733,0.00715847, NaN, NaN, NaN,0.04211683," ""- N/A -   """
4.26,101.199,0.00723066, NaN, NaN, NaN,0.04577916," ""- N/A -   """
4.31,102.26,0.00731674, NaN, NaN, NaN,0.0445584," ""- N/A -   """
4.36,103.44,0.00741393, NaN, NaN, NaN,0.0384545," ""- N/A -   """
4.41,104.619,0.00750834, NaN, NaN, NaN,0.0335714," ""- N/A -   """
4.46,105.563,0.00759719, NaN, NaN, NaN,0.03112983," ""- N/A -   """
4.51,106.507,0.007677719, NaN, NaN, NaN,0.0323506," ""- N/A -   """
4.56,107.3322,0.007755468, NaN, NaN, NaN,0.0347922," ""- N/A -   """
4.61,108.158,0.007833217, NaN, NaN, NaN,0.0372337," ""- N/A -   """
4.66,109.219,0.00792485, NaN, NaN, NaN,0.0335714," ""- N/A -   """
4.71,110.163,0.008008153, NaN, NaN, NaN,0.0335714," ""- N/A -   """
4.76,110.989,0.008091455, NaN, NaN, NaN,0.0335714," ""- N/A -   """
4.81,111.8142,0.008166427, NaN, NaN, NaN,0.0372337," ""- N/A -   """
4.86,112.64,0.0082414, NaN, NaN, NaN,0.04089605," ""- N/A -   """
4.91,113.701,0.008330256, NaN, NaN, NaN,0.0396753," ""- N/A -   """
4.96,114.763,0.008410782, NaN, NaN, NaN,0.0396753," ""- N/A -   """
5.01,115.706,0.008494084, NaN, NaN, NaN,0.04089605," ""- N/A -   """
5.06,116.768,0.008580163, NaN, NaN, NaN,0.0384545," ""- N/A -   """
5.11,117.83,0.00866902, NaN, NaN, NaN,0.0372337," ""- N/A -   """
5.16,118.7731,0.008752322, NaN, NaN, NaN,0.0372337," ""- N/A -   """
5.21,119.717,0.008835625, NaN, NaN, NaN,0.03601294," ""- N/A -   """
[...]
26.3,790.395,0.04398375, NaN, NaN, NaN,0.0372337," ""- N/A -   """
26.39,794.0622,0.0441392, NaN, NaN, NaN,0.0347922," ""- N/A -   """
26.48,797.6106,0.0442892, NaN, NaN, NaN,0.0347922," ""- N/A -   """
26.57,801.6321,0.0444502, NaN, NaN, NaN,0.0299091," ""- N/A -   """
26.66,804.826,0.04458908, NaN, NaN, NaN,0.0347922," ""- N/A -   """
26.75,807.6645,0.0447168, NaN, NaN, NaN,0.0445584," ""- N/A -   """
26.84,811.2129,0.0448612, NaN, NaN, NaN,0.04699994," ""- N/A -   """
26.93,815.5893,0.0450361, NaN, NaN, NaN,0.03601294," ""- N/A -   """
27.02,819.374,0.0451944, NaN, NaN, NaN,0.0335714," ""- N/A -   """
27.11,823.2775,0.0453555, NaN, NaN, NaN,0.0286883," ""- N/A -   """
27.2,826.8259,0.0455026, NaN, NaN, NaN,0.0299091," ""- N/A -   """
27.29,830.02,0.0456359, NaN, NaN, NaN,0.03601294," ""- N/A -   """
27.38,832.9765,0.0457664, NaN, NaN, NaN,0.04577916," ""- N/A -   """
27.47,836.8798,0.0459164, NaN, NaN, NaN,0.0445584," ""- N/A -   """
27.56,840.5465,0.04606909, NaN, NaN, NaN,0.0433376," ""- N/A -   """
27.65,844.9229,0.04624125, NaN, NaN, NaN,0.0335714," ""- N/A -   """
27.74,848.826,0.0463995, NaN, NaN, NaN,0.03112983," ""- N/A -   """
27.83,852.138,0.0465439, NaN, NaN, NaN,0.0323506," ""- N/A -   """
27.92,855.5682,0.0466828, NaN, NaN, NaN,0.0372337," ""- N/A -   """
28.01,859.3532,0.0468327, NaN, NaN, NaN,0.0372337," ""- N/A -   """
28.1,862.665,0.0469688, NaN, NaN, NaN,0.0433376," ""- N/A -   """
28.19,866.3317,0.0471187, NaN, NaN, NaN,0.0433376," ""- N/A -   """
28.28,870.7081,0.04729086, NaN, NaN, NaN,0.0347922," ""- N/A -   """
28.37,874.73,0.04745469, NaN, NaN, NaN,0.0286883," ""- N/A -   """
28.46,878.042,0.0475907, NaN, NaN, NaN,0.0335714," ""- N/A -   """
28.55,881.9448,0.047749, NaN, NaN, NaN,0.03112983," ""- N/A -   """
28.64,885.375,0.0478906, NaN, NaN, NaN,0.0335714," ""- N/A -   """
28.73,888.569,0.0480211, NaN, NaN, NaN,0.04211683," ""- N/A -   """
28.82,892.117,0.0481711, NaN, NaN, NaN,0.0433376," ""- N/A -   """
28.91,896.02,0.04832659, NaN, NaN, NaN,0.0396753," ""- N/A -   """
29,900.2783,0.04848764, NaN, NaN, NaN,0.0347922," ""- N/A -   """
29.09,903.5903,0.0486293, NaN, NaN, NaN,0.0384545," ""- N/A -   """
29.18,907.73,0.04879586, NaN, NaN, NaN,0.03112983," ""- N/A -   """
29.27,911.0419,0.0489375, NaN, NaN, NaN,0.0347922," ""- N/A -   """
29.36,914.9452,0.049093, NaN, NaN, NaN,0.0323506," ""- N/A -   """
29.45,918.257,0.0492318, NaN, NaN, NaN,0.0372337," ""- N/A -   """
29.54,921.569,0.04936787, NaN, NaN, NaN,0.0445584," ""- N/A -   """
29.63,925.472,0.04952337, NaN, NaN, NaN,0.04211683," ""- N/A -   """
29.72,930.085,0.0496983, NaN, NaN, NaN,0.0299091," ""- N/A -   """
29.81,933.515,0.0498455, NaN, NaN, NaN,0.0323506," ""- N/A -   """
29.9,937.182,0.04999542, NaN, NaN, NaN,0.03112983," ""- N/A -   """
29.99,940.967,0.0501454, NaN, NaN, NaN,0.0323506," ""- N/A -   """
30.08,943.924,0.05027309, NaN, NaN, NaN,0.04089605," ""- N/A -   """
30.17,947.236,0.05040915, NaN, NaN, NaN,0.04699994," ""- N/A -   """
30.26,951.2574,0.0505702, NaN, NaN, NaN,0.04211683," ""- N/A -   """
30.35,955.5155,0.0507368, NaN, NaN, NaN,0.0347922," ""- N/A -   """
30.44,959.419,0.0508923, NaN, NaN, NaN,0.0335714," ""- N/A -   """
30.53,963.44,0.0510534, NaN, NaN, NaN,0.0286883," ""- N/A -   """
30.62,966.9888,0.0512005, NaN, NaN, NaN,0.0286883," ""- N/A -   """
30.71,970.1823,0.0513338, NaN, NaN, NaN,0.0372337," ""- N/A -   """
30.8,973.4942,0.0514671, NaN, NaN, NaN,0.0445584," ""- N/A -   """
30.89,977.2792,0.0516226, NaN, NaN, NaN,0.04211683," ""- N/A -   """
30.98,981.064,0.05177254, NaN, NaN, NaN,0.04211683," ""- N/A -   """
31.062,984.8492,0.05192248, NaN, NaN, NaN,0.03601294," ""- N/A -   """