Folder: DigitalTwins-Machine-Learning/2_Tensile_Data (part 8)

File: Hamel_ForceTest_Bolt4_Test2.csv
Time, Load (lb), Position (in), AxialStrain (in), TransverseStrain (in), Auxiliary (), Control Out (V), Stress (psi)
0.0, 1.29742, 0.0, NaN, NaN, NaN, 0.09705182, "- N/A -   "
0.01, 1.76921, 3.054427E-5, NaN, NaN, NaN, 0.09949338, "- N/A -   "
0.02, 2.241, 6.386529E-5, NaN, NaN, NaN, 0.09338949, "- N/A -   "
0.03, 2.712792, 9.440956E-5, NaN, NaN, NaN, 0.08606482, "- N/A -   "
0.04, 3.06663, 0.000124954, NaN, NaN, NaN, 0.0799609, "- N/A -   "
0.05, 3.53842, 0.000152721, NaN, NaN, NaN, 0.0750778, "- N/A -   "
0.06, 4.010214, 0.000180489, NaN, NaN, NaN, 0.0701947, "- N/A -   "
0.07, 4.246109, 0.000202703, NaN, NaN, NaN, 0.06775316, "- N/A -   "
0.08, 4.717899, 0.000224917, NaN, NaN, NaN, 0.0653116, "- N/A -   "
0.09, 4.83585, 2.471309E-4, NaN, NaN, NaN, 0.0640908, "- N/A -   "
0.1, 5.307636, 0.000266568, NaN, NaN, NaN, 0.06164927, "- N/A -   "
0.11, 5.425584, 0.000286005, NaN, NaN, NaN, 0.0604285, "- N/A -   "
0.12, 5.779426, 3.054427E-4, NaN, NaN, NaN, 0.0604285, "- N/A -   "
0.13, 6.01532, 0.00032488, NaN, NaN, NaN, 0.0592077, "- N/A -   "
0.14, 6.251216, 0.00034154, NaN, NaN, NaN, 0.0579869, "- N/A -   "
0.15, 6.487111, 3.637545E-4, NaN, NaN, NaN, 0.05676616, "- N/A -   "
0.16, 6.723006, 0.000383192, NaN, NaN, NaN, 0.0555454, "- N/A -   "
0.17, 7.07685, 0.000399852, NaN, NaN, NaN, 0.0543246, "- N/A -   "
0.18, 7.312743, 4.192895E-4, NaN, NaN, NaN, 0.0531038, "- N/A -   "
0.19, 7.548638, 4.387268E-4, NaN, NaN, NaN, 0.05188305, "- N/A -   "
0.2, 7.784533, 4.553873E-4, NaN, NaN, NaN, 0.05188305, "- N/A -   "
0.21, 8.020428, 0.000474825, NaN, NaN, NaN, 0.05066227, "- N/A -   "
0.22, 8.256323, 4.942618E-4, NaN, NaN, NaN, 0.05066227, "- N/A -   "
0.23, 8.492218, 0.000510922, NaN, NaN, NaN, 0.0494415, "- N/A -   "
0.24, 8.728113, 0.000527583, NaN, NaN, NaN, 0.0494415, "- N/A -   "
0.25, 9.081955, 5.442434E-4, NaN, NaN, NaN, 0.0494415, "- N/A -   "
0.26, 9.199903, 0.000560904, NaN, NaN, NaN, 0.0494415, "- N/A -   "
0.27, 9.435798, 0.000577564, NaN, NaN, NaN, 0.0494415, "- N/A -   "
0.28, 9.671693, 5.942249E-4, NaN, NaN, NaN, 0.0494415, "- N/A -   "
0.29, 9.78964, 6.108854E-4, NaN, NaN, NaN, 0.0494415, "- N/A -   "
0.3, 10.0255, 0.000627546, NaN, NaN, NaN, 0.0494415, "- N/A -   "
0.31, 10.26143, 6.442064E-4, NaN, NaN, NaN, 0.0494415, "- N/A -   "
0.32, 10.6153, 6.636437E-4, NaN, NaN, NaN, 0.0482207, "- N/A -   "
0.33, 10.8512, 6.830809E-4, NaN, NaN, NaN, 0.04699994, "- N/A -   "
0.34, 11.0871, 7.025182E-4, NaN, NaN, NaN, 0.04577916, "- N/A -   "
0.35, 11.323, 7.219555E-4, NaN, NaN, NaN, 0.04577916, "- N/A -   "
0.36, 11.6768, 7.38616E-4, NaN, NaN, NaN, 0.0445584, "- N/A -   "
0.37, 11.7947, 0.000758053, NaN, NaN, NaN, 0.0433376, "- N/A -   "
0.41, 12.8563, 8.358023E-4, NaN, NaN, NaN, 0.0384545, "- N/A -   "
0.45, 14.0357, 9.218816E-4, NaN, NaN, NaN, 0.03112983, "- N/A -   "
0.49, 14.8614, 9.885236E-4, NaN, NaN, NaN, 0.0299091, "- N/A -   "
0.53, 15.805, 0.00105517, NaN, NaN, NaN, 0.03112983, "- N/A -   "
0.57, 16.6306, 0.00112181, NaN, NaN, NaN, 0.0299091, "- N/A -   "
0.61, 17.4562, 0.00118012, NaN, NaN, NaN, 0.0335714, "- N/A -   "
0.65, 18.2819, 0.00124398, NaN, NaN, NaN, 0.03601294, "- N/A -   "
0.69, 19.2254, 0.00130507, NaN, NaN, NaN, 0.0372337, "- N/A -   "
0.73, 20.05107, 0.00137172, NaN, NaN, NaN, 0.0384545, "- N/A -   "
0.77, 20.99465, 0.00143836, NaN, NaN, NaN, 0.0372337, "- N/A -   "
0.81, 21.93823, 0.00150222, NaN, NaN, NaN, 0.0384545, "- N/A -   "
0.85, 22.6459, 0.00156053, NaN, NaN, NaN, 0.04211683, "- N/A -   "
0.89, 23.4715, 0.001621623, NaN, NaN, NaN, 0.0445584, "- N/A -   "
0.93, 24.29718, 0.00168549, NaN, NaN, NaN, 0.04699994, "- N/A -   "
0.97, 25.1228, 0.00175491, NaN, NaN, NaN, 0.04577916, "- N/A -   "
1.01, 26.18434, 0.00183266, NaN, NaN, NaN, 0.04089605, "- N/A -   "
1.05, 27.2459, 0.00190763, NaN, NaN, NaN, 0.03601294, "- N/A -   "
1.09, 28.3074, 0.001982601, NaN, NaN, NaN, 0.0335714, "- N/A -   "
1.13, 29.251, 0.00206035, NaN, NaN, NaN, 0.0286883, "- N/A -   "
1.17, 30.1946, 0.00212422, NaN, NaN, NaN, 0.0299091, "- N/A -   "
1.21, 30.9022, 0.002182527, NaN, NaN, NaN, 0.0323506, "- N/A -   "
1.25, 31.72787, 0.00224362, NaN, NaN, NaN, 0.0347922, "- N/A -   "
1.29, 32.67145, 0.00231303, NaN, NaN, NaN, 0.0335714, "- N/A -   "
1.33, 33.73298, 0.00238523, NaN, NaN, NaN, 0.03112983, "- N/A -   "
1.37, 34.55861, 0.00245187, NaN, NaN, NaN, 0.0323506, "- N/A -   "
1.41, 35.50219, 0.00251296, NaN, NaN, NaN, 0.0335714, "- N/A -   "
1.45, 36.2099, 0.00257127, NaN, NaN, NaN, 0.0372337, "- N/A -   "
1.49, 36.79961, 0.00262681, NaN, NaN, NaN, 0.04211683, "- N/A -   "
1.53, 37.74319, 0.00269067, NaN, NaN, NaN, 0.0433376, "- N/A -   "
1.57, 38.5688, 0.00276009, NaN, NaN, NaN, 0.04211683, "- N/A -   "
1.61, 39.6304, 0.00283229, NaN, NaN, NaN, 0.0396753, "- N/A -   "
1.65, 40.456, 0.002898929, NaN, NaN, NaN, 0.0396753, "- N/A -   "
1.69, 41.2816, 0.002965571, NaN, NaN, NaN, 0.0396753, "- N/A -   "
1.73, 42.3431, 0.00303777, NaN, NaN, NaN, 0.0384545, "- N/A -   "
1.77, 43.2867, 0.00310719, NaN, NaN, NaN, 0.03601294, "- N/A -   "
1.81, 44.2303, 0.0031766, NaN, NaN, NaN, 0.0347922, "- N/A -   "
1.85, 45.05593, 0.003243246, NaN, NaN, NaN, 0.0347922, "- N/A -   "
1.89, 46.11746, 0.003315442, NaN, NaN, NaN, 0.0335714, "- N/A -   "
1.93, 47.061, 0.003382084, NaN, NaN, NaN, 0.0323506, "- N/A -   "
1.97, 47.65078, 0.00344595, NaN, NaN, NaN, 0.0347922, "- N/A -   "
2.01, 48.47641, 0.00350981, NaN, NaN, NaN, 0.0347922, "- N/A -   "
2.05, 49.41999, 0.00357923, NaN, NaN, NaN, 0.0347922, "- N/A -   "
2.09, 50.2456, 0.0036431, NaN, NaN, NaN, 0.0347922, "- N/A -   "
2.13, 51.0713, 0.00370974, NaN, NaN, NaN, 0.0347922, "- N/A -   "
2.17, 52.01483, 0.00377361, NaN, NaN, NaN, 0.03601294, "- N/A -   "
2.21, 52.84047, 0.00383747, NaN, NaN, NaN, 0.0372337, "- N/A -   "
2.25, 53.6661, 0.00390134, NaN, NaN, NaN, 0.0396753, "- N/A -   "
2.29, 54.4917, 0.00396242, NaN, NaN, NaN, 0.04089605, "- N/A -   "
2.33, 55.3174, 0.00402351, NaN, NaN, NaN, 0.0433376, "- N/A -   "
2.37, 56.2609, 0.00409016, NaN, NaN, NaN, 0.0433376, "- N/A -   "
2.41, 57.20452, 0.00416235, NaN, NaN, NaN, 0.04089605, "- N/A -   "
2.45, 58.26605, 0.00423732, NaN, NaN, NaN, 0.0384545, "- N/A -   "
2.49, 59.0917, 0.004312296, NaN, NaN, NaN, 0.0347922, "- N/A -   "
2.53, 60.0353, 0.004381715, NaN, NaN, NaN, 0.0323506, "- N/A -   "
2.57, 60.8609, 0.00444558, NaN, NaN, NaN, 0.0335714, "- N/A -   "
2.61, 61.6865, 0.004515, NaN, NaN, NaN, 0.0323506, "- N/A -   "
2.65, 62.7481, 0.004584417, NaN, NaN, NaN, 0.03112983, "- N/A -   "
2.69, 63.5737, 0.004656613, NaN, NaN, NaN, 0.0286883, "- N/A -   "
2.73, 64.3993, 0.00472881, NaN, NaN, NaN, 0.0274675, "- N/A -   "
2.77, 65.22495, 0.004792674, NaN, NaN, NaN, 0.0274675, "- N/A -   "
2.81, 65.81469, 0.00484821, NaN, NaN, NaN, 0.0323506, "- N/A -   "
2.85, 66.52237, 0.00490652, NaN, NaN, NaN, 0.03601294, "- N/A -   "
2.89, 66.99416, 0.004962056, NaN, NaN, NaN, 0.04089605, "- N/A -   "
2.93, 67.81979, 0.005023144, NaN, NaN, NaN, 0.0445584, "- N/A -   "
2.97, 68.7634, 0.005087009, NaN, NaN, NaN, 0.0445584, "- N/A -   "
3.01, 69.47106, 0.005150875, NaN, NaN, NaN, 0.04577916, "- N/A -   "
3.05, 70.29669, 0.00522029, NaN, NaN, NaN, 0.0445584, "- N/A -   "
3.09, 71.4762, 0.00530082, NaN, NaN, NaN, 0.0384545, "- N/A -   "
3.13, 72.1838, 0.00537024, NaN, NaN, NaN, 0.0372337, "- N/A -   "
[...]
20.17, 641.953, 0.0337709, NaN, NaN, NaN, 0.0372337, "- N/A -   "
20.31, 648.104, 0.0340208, NaN, NaN, NaN, 0.0299091, "- N/A -   "
20.45, 654.1359, 0.0342568, NaN, NaN, NaN, 0.0286883, "- N/A -   "
20.59, 659.104, 0.03446227, NaN, NaN, NaN, 0.04089605, "- N/A -   "
20.73, 664.8995, 0.03468996, NaN, NaN, NaN, 0.0433376, "- N/A -   "
20.87, 671.168, 0.03493709, NaN, NaN, NaN, 0.0372337, "- N/A -   "
21.01, 677.6738, 0.0351898, NaN, NaN, NaN, 0.0286883, "- N/A -   "
21.15, 682.996, 0.0354036, NaN, NaN, NaN, 0.0372337, "- N/A -   "
21.29, 688.91, 0.0356341, NaN, NaN, NaN, 0.0384545, "- N/A -   "
21.43, 694.3514, 0.03585342, NaN, NaN, NaN, 0.0445584, "- N/A -   "
21.57, 701.2117, 0.03612, NaN, NaN, NaN, 0.0299091, "- N/A -   "
21.71, 706.889, 0.0363449, NaN, NaN, NaN, 0.0347922, "- N/A -   "
21.85, 713.276, 0.0365893, NaN, NaN, NaN, 0.03112983, "- N/A -   "
21.99, 718.2441, 0.0367892, NaN, NaN, NaN, 0.0445584, "- N/A -   "
22.13, 724.513, 0.0370363, NaN, NaN, NaN, 0.0396753, "- N/A -   "
22.27, 730.664, 0.0372723, NaN, NaN, NaN, 0.0372337, "- N/A -   "
22.41, 736.8143, 0.0375139, NaN, NaN, NaN, 0.0335714, "- N/A -   "
22.55, 742.4917, 0.0377416, NaN, NaN, NaN, 0.03601294, "- N/A -   "
22.69, 748.2875, 0.03797208, NaN, NaN, NaN, 0.0372337, "- N/A -   "
22.83, 753.7284, 0.0381831, NaN, NaN, NaN, 0.04699994, "- N/A -   "
22.97, 760.825, 0.0384525, NaN, NaN, NaN, 0.03112983, "- N/A -   "
23.11, 766.621, 0.0386829, NaN, NaN, NaN, 0.0323506, "- N/A -   "
23.25, 772.7716, 0.0389245, NaN, NaN, NaN, 0.0286883, "- N/A -   "
23.39, 777.6211, 0.0391217, NaN, NaN, NaN, 0.04577916, "- N/A -   "
23.53, 783.7717, 0.0393577, NaN, NaN, NaN, 0.0433376, "- N/A -   "
23.67, 790.277, 0.0396131, NaN, NaN, NaN, 0.0335714, "- N/A -   "
23.81, 796.5461, 0.0398547, NaN, NaN, NaN, 0.0299091, "- N/A -   "
23.95, 802.1053, 0.04007686, NaN, NaN, NaN, 0.0347922, "- N/A -   "
24.09, 807.5462, 0.04029067, NaN, NaN, NaN, 0.0433376, "- N/A -   "
24.23, 813.5785, 0.0405267, NaN, NaN, NaN, 0.04211683, "- N/A -   "
24.37, 820.557, 0.0407933, NaN, NaN, NaN, 0.0274675, "- N/A -   "
24.51, 826.235, 0.0410182, NaN, NaN, NaN, 0.03112983, "- N/A -   "
24.65, 832.149, 0.0412431, NaN, NaN, NaN, 0.0347922, "- N/A -   "
24.79, 837.4712, 0.0414541, NaN, NaN, NaN, 0.0445584, "- N/A -   "
24.93, 844.213, 0.04170681, NaN, NaN, NaN, 0.03601294, "- N/A -   "
25.07, 850.364, 0.0419456, NaN, NaN, NaN, 0.0335714, "- N/A -   "
25.21, 856.16, 0.04217886, NaN, NaN, NaN, 0.0347922, "- N/A -   "
25.35, 862.192, 0.0424038, NaN, NaN, NaN, 0.0372337, "- N/A -   "
25.49, 868.106, 0.04263425, NaN, NaN, NaN, 0.0396753, "- N/A -   "
25.63, 874.3748, 0.04287305, NaN, NaN, NaN, 0.03601294, "- N/A -   "
25.77, 880.525, 0.0431146, NaN, NaN, NaN, 0.0335714, "- N/A -   "
25.91, 886.9126, 0.0433562, NaN, NaN, NaN, 0.0286883, "- N/A -   "
26.05, 892.5901, 0.0435783, NaN, NaN, NaN, 0.0347922, "- N/A -   "
26.19, 897.794, 0.04378105, NaN, NaN, NaN, 0.0482207, "- N/A -   "
26.33, 904.6547, 0.0440365, NaN, NaN, NaN, 0.0384545, "- N/A -   "
26.47, 910.9236, 0.04428086, NaN, NaN, NaN, 0.0335714, "- N/A -   "
26.61, 917.547, 0.04452799, NaN, NaN, NaN, 0.0286883, "- N/A -   "
26.75, 922.7517, 0.04473625, NaN, NaN, NaN, 0.0384545, "- N/A -   "
26.89, 928.4292, 0.0449528, NaN, NaN, NaN, 0.04577916, "- N/A -   "
27.03, 935.2895, 0.0452111, NaN, NaN, NaN, 0.0347922, "- N/A -   "
27.17, 941.677, 0.0454554, NaN, NaN, NaN, 0.0299091, "- N/A -   "
27.31, 947.709, 0.0456887, NaN, NaN, NaN, 0.03112983, "- N/A -   "
27.45, 952.913, 0.0458886, NaN, NaN, NaN, 0.0445584, "- N/A -   "
27.451, 952.913, 0.0458914, NaN, NaN, NaN, 0.0445584, "- N/A -   "

File: Hamel_ForceTest_Bolt4_Test3.csv
Time, Load (lb), Position (in), AxialStrain (in), TransverseStrain (in), Auxiliary (), Control Out (V), Stress (psi)
0.0, 1.29742, 0.0, NaN, NaN, NaN, 0.08850638, "- N/A -   "
0.01, 1.41537, 3.054427E-5, NaN, NaN, NaN, 0.08240249, "- N/A -   "
0.02, 1.76921, 5.83118e-05, NaN, NaN, NaN, 0.07751938, "- N/A -   "
0.03, 2.005107, 8.607931E-5, NaN, NaN, NaN, 0.07385705, "- N/A -   "
0.04, 2.241, 0.00011107, NaN, NaN, NaN, 0.0689739, "- N/A -   "
0.05, 2.59484, 0.000136061, NaN, NaN, NaN, 0.0653116, "- N/A -   "
0.06, 2.83074, 1.610516E-4, NaN, NaN, NaN, 0.06164927, "- N/A -   "
0.07, 3.06663, 0.000183266, NaN, NaN, NaN, 0.0592077, "- N/A -   "
0.08, 3.30253, 0.00020548, NaN, NaN, NaN, 0.05676616, "- N/A -   "
0.09, 3.53842, 0.000227694, NaN, NaN, NaN, 0.0543246, "- N/A -   "
0.1, 3.89227, 0.000249908, NaN, NaN, NaN, 0.05188305, "- N/A -   "
0.11, 4.12816, 2.721217E-4, NaN, NaN, NaN, 0.0494415, "- N/A -   "
0.12, 4.36406, 0.000297112, NaN, NaN, NaN, 0.04699994, "- N/A -   "
0.13, 4.717899, 0.000319326, NaN, NaN, NaN, 0.0433376, "- N/A -   "
0.14, 5.071741, 0.00034154, NaN, NaN, NaN, 0.04089605, "- N/A -   "
0.15, 5.18969, 3.637545E-4, NaN, NaN, NaN, 0.0384545, "- N/A -   "
0.16, 5.425584, 3.859685E-4, NaN, NaN, NaN, 0.03601294, "- N/A -   "
0.17, 5.779426, 0.000405406, NaN, NaN, NaN, 0.0347922, "- N/A -   "
0.18, 5.897373, 0.000424843, NaN, NaN, NaN, 0.0335714, "- N/A -   "
0.19, 6.01532, 0.000441504, NaN, NaN, NaN, 0.0335714, "- N/A -   "
0.2, 6.251216, 4.609408E-4, NaN, NaN, NaN, 0.0323506, "- N/A -   "
0.21, 6.487111, 4.776013E-4, NaN, NaN, NaN, 0.0323506, "- N/A -   "
0.22, 6.723006, 4.970386E-4, NaN, NaN, NaN, 0.0323506, "- N/A -   "
0.23, 6.9589, 5.136991E-4, NaN, NaN, NaN, 0.03112983, "- N/A -   "
0.24, 7.1948, 0.00053036, NaN, NaN, NaN, 0.03112983, "- N/A -   "
0.25, 7.312743, 5.470201E-4, NaN, NaN, NaN, 0.03112983, "- N/A -   "
0.26, 7.548638, 5.636806E-4, NaN, NaN, NaN, 0.03112983, "- N/A -   "
0.27, 7.90248, 0.000577564, NaN, NaN, NaN, 0.0323506, "- N/A -   "
0.28, 7.90248, 5.942249E-4, NaN, NaN, NaN, 0.0323506, "- N/A -   "
0.29, 8.138375, 0.000608109, NaN, NaN, NaN, 0.0335714, "- N/A -   "
0.3, 8.256323, 6.219924E-4, NaN, NaN, NaN, 0.0347922, "- N/A -   "
0.31, 8.37427, 0.000638653, NaN, NaN, NaN, 0.0347922, "- N/A -   "
0.32, 8.728113, 6.525367E-4, NaN, NaN, NaN, 0.03601294, "- N/A -   "
0.33, 8.964007, 0.00066642, NaN, NaN, NaN, 0.0372337, "- N/A -   "
0.34, 9.081955, 6.803042E-4, NaN, NaN, NaN, 0.0384545, "- N/A -   "
0.35, 9.199903, 6.969647E-4, NaN, NaN, NaN, 0.0384545, "- N/A -   "
0.36, 9.435798, 7.108485E-4, NaN, NaN, NaN, 0.0396753, "- N/A -   "
0.37, 9.78964, 0.000724732, NaN, NaN, NaN, 0.04089605, "- N/A -   "
0.38, 9.78964, 7.38616E-4, NaN, NaN, NaN, 0.04211683, "- N/A -   "
0.39, 10.1435, 0.0007525, NaN, NaN, NaN, 0.0433376, "- N/A -   "
0.4, 10.26143, 7.663835E-4, NaN, NaN, NaN, 0.0445584, "- N/A -   "
0.41, 10.4973, 0.000783044, NaN, NaN, NaN, 0.0445584, "- N/A -   "
0.42, 10.6153, 7.997045E-4, NaN, NaN, NaN, 0.04577916, "- N/A -   "
0.43, 10.9691, 0.000813588, NaN, NaN, NaN, 0.04577916, "- N/A -   "
0.44, 11.205, 0.000833026, NaN, NaN, NaN, 0.04577916, "- N/A -   "
0.45, 11.4409, 0.000849686, NaN, NaN, NaN, 0.0445584, "- N/A -   "
0.46, 11.6768, 8.663466E-4, NaN, NaN, NaN, 0.0445584, "- N/A -   "
0.47, 11.9127, 8.830071E-4, NaN, NaN, NaN, 0.0445584, "- N/A -   "
0.48, 12.14859, 0.000899668, NaN, NaN, NaN, 0.0445584, "- N/A -   "
0.49, 12.3845, 9.163281E-4, NaN, NaN, NaN, 0.0445584, "- N/A -   "
0.5, 12.6204, 9.329886E-4, NaN, NaN, NaN, 0.0445584, "- N/A -   "
0.51, 12.8563, 0.000949649, NaN, NaN, NaN, 0.0445584, "- N/A -   "
0.52, 13.09217, 9.663096E-4, NaN, NaN, NaN, 0.0445584, "- N/A -   "
0.53, 13.3281, 9.829701E-4, NaN, NaN, NaN, 0.0445584, "- N/A -   "
0.54, 13.446, 9.996307E-4, NaN, NaN, NaN, 0.0445584, "- N/A -   "
0.55, 13.7999, 0.00101629, NaN, NaN, NaN, 0.0445584, "- N/A -   "
0.56, 13.9178, 0.00103017, NaN, NaN, NaN, 0.04577916, "- N/A -   "
0.57, 14.1537, 0.00104684, NaN, NaN, NaN, 0.04699994, "- N/A -   "
0.58, 14.5075, 0.001063496, NaN, NaN, NaN, 0.04577916, "- N/A -   "
0.59, 14.6255, 0.00108016, NaN, NaN, NaN, 0.04577916, "- N/A -   "
0.6, 14.9793, 0.001096817, NaN, NaN, NaN, 0.04577916, "- N/A -   "
0.61, 15.3332, 0.00111625, NaN, NaN, NaN, 0.0445584, "- N/A -   "
0.62, 15.5691, 0.00113569, NaN, NaN, NaN, 0.0433376, "- N/A -   "
0.63, 15.805, 0.00115513, NaN, NaN, NaN, 0.0433376, "- N/A -   "
0.64, 16.0409, 0.00117179, NaN, NaN, NaN, 0.04211683, "- N/A -   "
0.65, 16.27675, 0.00118845, NaN, NaN, NaN, 0.04211683, "- N/A -   "
0.66, 16.6306, 0.00121066, NaN, NaN, NaN, 0.0396753, "- N/A -   "
0.67, 16.86649, 0.0012301, NaN, NaN, NaN, 0.0384545, "- N/A -   "
0.68, 17.2203, 0.00125232, NaN, NaN, NaN, 0.03601294, "- N/A -   "
0.69, 17.5742, 0.00127175, NaN, NaN, NaN, 0.0347922, "- N/A -   "
0.7, 17.8101, 0.00129397, NaN, NaN, NaN, 0.0335714, "- N/A -   "
0.71, 18.16391, 0.0013134, NaN, NaN, NaN, 0.03112983, "- N/A -   "
0.72, 18.3998, 0.00133006, NaN, NaN, NaN, 0.03112983, "- N/A -   "
0.73, 18.7536, 0.0013495, NaN, NaN, NaN, 0.0299091, "- N/A -   "
0.74, 18.9895, 0.00136616, NaN, NaN, NaN, 0.0299091, "- N/A -   "
0.75, 19.1075, 0.0013856, NaN, NaN, NaN, 0.0286883, "- N/A -   "
0.76, 19.4613, 0.00140226, NaN, NaN, NaN, 0.0286883, "- N/A -   "
0.77, 19.57928, 0.00141892, NaN, NaN, NaN, 0.0299091, "- N/A -   "
0.78, 19.9331, 0.00143558, NaN, NaN, NaN, 0.0286883, "- N/A -   "
0.79, 20.169, 0.00145224, NaN, NaN, NaN, 0.0299091, "- N/A -   "
0.8, 20.52286, 0.0014689, NaN, NaN, NaN, 0.0286883, "- N/A -   "
0.81, 20.6408, 0.00148556, NaN, NaN, NaN, 0.0299091, "- N/A -   "
0.82, 20.8767, 0.00150222, NaN, NaN, NaN, 0.0299091, "- N/A -   "
0.83, 21.1126, 0.00151611, NaN, NaN, NaN, 0.0299091, "- N/A -   "
0.84, 21.3485, 0.00152999, NaN, NaN, NaN, 0.03112983, "- N/A -   "
0.85, 21.46644, 0.00154665, NaN, NaN, NaN, 0.03112983, "- N/A -   "
0.86, 21.8203, 0.00156331, NaN, NaN, NaN, 0.03112983, "- N/A -   "
0.87, 22.0562, 0.001577195, NaN, NaN, NaN, 0.0323506, "- N/A -   "
0.88, 22.29207, 0.00159108, NaN, NaN, NaN, 0.0335714, "- N/A -   "
0.89, 22.528, 0.00160774, NaN, NaN, NaN, 0.0347922, "- N/A -   "
0.9, 22.7639, 0.001621623, NaN, NaN, NaN, 0.0347922, "- N/A -   "
0.91, 22.9998, 0.00163828, NaN, NaN, NaN, 0.0347922, "- N/A -   "
0.92, 23.2357, 0.001654944, NaN, NaN, NaN, 0.0347922, "- N/A -   "
0.93, 23.4715, 0.00166883, NaN, NaN, NaN, 0.03601294, "- N/A -   "
0.94, 23.82539, 0.00168549, NaN, NaN, NaN, 0.03601294, "- N/A -   "
0.95, 24.0613, 0.00170215, NaN, NaN, NaN, 0.03601294, "- N/A -   "
0.96, 24.29718, 0.00171881, NaN, NaN, NaN, 0.03601294, "- N/A -   "
0.97, 24.5331, 0.00173547, NaN, NaN, NaN, 0.03601294, "- N/A -   "
0.98, 24.769, 0.00175491, NaN, NaN, NaN, 0.0347922, "- N/A -   "
0.99, 25.1228, 0.00177434, NaN, NaN, NaN, 0.0335714, "- N/A -   "
1, 25.3587, 0.001791, NaN, NaN, NaN, 0.0335714, "- N/A -   "
1.01, 25.5946, 0.00180767, NaN, NaN, NaN, 0.0335714, "- N/A -   "
1.05, 26.5382, 0.00186598, NaN, NaN, NaN, 0.0372337, "- N/A -   "
1.09, 27.3638, 0.00192151, NaN, NaN, NaN, 0.04211683, "- N/A -   "
1.13, 28.1894, 0.00197982, NaN, NaN, NaN, 0.04577916, "- N/A -   "
1.17, 29.251, 0.002046466, NaN, NaN, NaN, 0.04577916, "- N/A -   "
1.21, 30.3125, 0.00211033, NaN, NaN, NaN, 0.04699994, "- N/A -   "
1.25, 31.492, 0.0021853, NaN, NaN, NaN, 0.0433376, "- N/A -   "
[...]
26.74, 951.7305, 0.044689, NaN, NaN, NaN, 0.0347922, "- N/A -   "
26.82, 955.3972, 0.0448279, NaN, NaN, NaN, 0.0323506, "- N/A -   "
26.9, 959.064, 0.0449695, NaN, NaN, NaN, 0.0286883, "- N/A -   "
26.98, 962.1392, 0.0450889, NaN, NaN, NaN, 0.03601294, "- N/A -   "
27.06, 964.8597, 0.04519719, NaN, NaN, NaN, 0.04577916, "- N/A -   "
27.14, 968.2898, 0.0453221, NaN, NaN, NaN, 0.0494415, "- N/A -   "
27.22, 972.3114, 0.0454721, NaN, NaN, NaN, 0.04211683, "- N/A -   "
27.3, 976.451, 0.045622, NaN, NaN, NaN, 0.0347922, "- N/A -   "
27.38, 980, 0.0457609, NaN, NaN, NaN, 0.0323506, "- N/A -   "
27.46, 984.139, 0.0459108, NaN, NaN, NaN, 0.0250259, "- N/A -   "
27.54, 987.2148, 0.04603577, NaN, NaN, NaN, 0.0286883, "- N/A -   "
27.62, 990.2901, 0.0461524, NaN, NaN, NaN, 0.03601294, "- N/A -   "
27.7, 993.365, 0.0462718, NaN, NaN, NaN, 0.0433376, "- N/A -   "
27.78, 997.032, 0.0464051, NaN, NaN, NaN, 0.04211683, "- N/A -   "
27.86, 1000.23, 0.04653281, NaN, NaN, NaN, 0.0445584, "- N/A -   "
27.94, 1004.01, 0.0466744, NaN, NaN, NaN, 0.04211683, "- N/A -   "
28.02, 1008.27, 0.04682715, NaN, NaN, NaN, 0.0323506, "- N/A -   "
28.1, 1011.82, 0.0469632, NaN, NaN, NaN, 0.03112983, "- N/A -   "
28.18, 1015.385, 0.0470937, NaN, NaN, NaN, 0.0323506, "- N/A -   "
28.26, 1018.72, 0.04721867, NaN, NaN, NaN, 0.03601294, "- N/A -   "
28.34, 1022.06, 0.0473464, NaN, NaN, NaN, 0.0384545, "- N/A -   "
28.42, 1025.283, 0.0474658, NaN, NaN, NaN, 0.0445584, "- N/A -   "
28.5, 1028.74, 0.0475963, NaN, NaN, NaN, 0.04577916, "- N/A -   "
28.58, 1033.03, 0.047749, NaN, NaN, NaN, 0.0372337, "- N/A -   "
28.66, 1037.09, 0.0479017, NaN, NaN, NaN, 0.0286883, "- N/A -   "
28.74, 1040.31, 0.0480239, NaN, NaN, NaN, 0.0335714, "- N/A -   "
28.82, 1043.767, 0.0481544, NaN, NaN, NaN, 0.0347922, "- N/A -   "
28.9, 1048.06, 0.0483072, NaN, NaN, NaN, 0.0262467, "- N/A -   "
28.98, 1051.04, 0.048421, NaN, NaN, NaN, 0.0347922, "- N/A -   "
29.06, 1054.02, 0.0485376, NaN, NaN, NaN, 0.04211683, "- N/A -   "
29.14, 1057.6, 0.04867091, NaN, NaN, NaN, 0.04211683, "- N/A -   "
29.22, 1060.82, 0.04879864, NaN, NaN, NaN, 0.0445584, "- N/A -   "
29.3, 1064.87, 0.0489403, NaN, NaN, NaN, 0.04089605, "- N/A -   "
29.38, 1068.57, 0.0490846, NaN, NaN, NaN, 0.0372337, "- N/A -   "
29.46, 1072.39, 0.0492207, NaN, NaN, NaN, 0.0347922, "- N/A -   "
29.54, 1075.97, 0.0493568, NaN, NaN, NaN, 0.0335714, "- N/A -   "
29.62, 1079.54, 0.04949283, NaN, NaN, NaN, 0.0323506, "- N/A -   "
29.7, 1083.12, 0.0496261, NaN, NaN, NaN, 0.0323506, "- N/A -   "
29.78, 1086.1, 0.04973996, NaN, NaN, NaN, 0.04089605, "- N/A -   "
29.86, 1089.56, 0.04987324, NaN, NaN, NaN, 0.04211683, "- N/A -   "
29.94, 1093.14, 0.05000375, NaN, NaN, NaN, 0.04211683, "- N/A -   "
30.02, 1097.31, 0.05015647, NaN, NaN, NaN, 0.0335714, "- N/A -   "
30.1, 1101.01, 0.0502953, NaN, NaN, NaN, 0.03112983, "- N/A -   "
30.18, 1104.47, 0.0504258, NaN, NaN, NaN, 0.0323506, "- N/A -   "
30.26, 1108.04, 0.05056465, NaN, NaN, NaN, 0.0299091, "- N/A -   "
30.34, 1111.38, 0.0506924, NaN, NaN, NaN, 0.0335714, "- N/A -   "
30.42, 1114.6, 0.0508118, NaN, NaN, NaN, 0.0384545, "- N/A -   "
30.5, 1117.7, 0.0509312, NaN, NaN, NaN, 0.0445584, "- N/A -   "
30.58, 1121.28, 0.05106447, NaN, NaN, NaN, 0.0445584, "- N/A -   "
30.66, 1125.22, 0.0512144, NaN, NaN, NaN, 0.0384545, "- N/A -   "
30.74, 1129.03, 0.05135603, NaN, NaN, NaN, 0.03601294, "- N/A -   "
30.82, 1132.61, 0.0514921, NaN, NaN, NaN, 0.0335714, "- N/A -   "
30.9, 1136.31, 0.0516337, NaN, NaN, NaN, 0.0299091, "- N/A -   "
30.98, 1139.88, 0.0517642, NaN, NaN, NaN, 0.03112983, "- N/A -   "
31.008, 1140.96, 0.0518086, NaN, NaN, NaN, 0.0323506, "- N/A -   "