Folder: DigitalTwins-Machine-Learning/2_Tensile_Data (part 28)

File: Hamel_ForceTest_Bolt7_Test10.csv
Time, Load (lb), Position (in), AxialStrain (in), TransverseStrain (in), Auxiliary (), Control Out (V), Stress (psi)
0.0, 11.323, 0.0, NaN, NaN, NaN, -0.006714277, "- N/A -   "
0.01, 11.4409, 2.776752E-6, NaN, NaN, NaN, -6.103888E-4, "- N/A -   "
0.02, 11.4409, 2.776752E-6, NaN, NaN, NaN, 0.006714277, "- N/A -   "
0.03, 11.323, 2.776752E-6, NaN, NaN, NaN, 0.0250259, "- N/A -   "
0.04, 11.4409, 8.330256E-6, NaN, NaN, NaN, 0.04211683, "- N/A -   "
0.05, 11.6768, 1.94373e-05, NaN, NaN, NaN, 0.05676616, "- N/A -   "
0.06, 12.14859, 3.3321e-05, NaN, NaN, NaN, 0.0701947, "- N/A -   "
0.07, 12.5024, 5.5535e-05, NaN, NaN, NaN, 0.0799609, "- N/A -   "
0.08, 13.2101, 8.05258E-5, NaN, NaN, NaN, 0.08850638, "- N/A -   "
0.09, 13.9178, 0.00011107, NaN, NaN, NaN, 0.09461027, "- N/A -   "
0.1, 14.5075, 0.000141614, NaN, NaN, NaN, 0.09461027, "- N/A -   "
0.11, 15.2152, 0.000174935, NaN, NaN, NaN, 0.08850638, "- N/A -   "
0.12, 15.805, 0.000202703, NaN, NaN, NaN, 0.08362327, "- N/A -   "
0.13, 16.3947, 0.000227694, NaN, NaN, NaN, 0.0799609, "- N/A -   "
0.14, 16.9844, 2.526844E-4, NaN, NaN, NaN, 0.0762986, "- N/A -   "
0.15, 17.4562, 0.000274898, NaN, NaN, NaN, 0.07385705, "- N/A -   "
0.16, 17.8101, 0.000294336, NaN, NaN, NaN, 0.07141549, "- N/A -   "
0.17, 18.2819, 3.165497E-4, NaN, NaN, NaN, 0.0689739, "- N/A -   "
0.18, 18.6357, 0.000335987, NaN, NaN, NaN, 0.06775316, "- N/A -   "
0.19, 18.9895, 0.000352647, NaN, NaN, NaN, 0.06775316, "- N/A -   "
0.2, 19.4613, 3.748615E-4, NaN, NaN, NaN, 0.06653238, "- N/A -   "
0.21, 19.8152, 0.000394299, NaN, NaN, NaN, 0.0653116, "- N/A -   "
0.22, 20.169, 4.13736E-4, NaN, NaN, NaN, 0.06287005, "- N/A -   "
0.23, 20.52286, 4.331733E-4, NaN, NaN, NaN, 0.06164927, "- N/A -   "
0.24, 20.8767, 0.000449834, NaN, NaN, NaN, 0.06164927, "- N/A -   "
0.25, 21.2305, 4.720478E-4, NaN, NaN, NaN, 0.0604285, "- N/A -   "
0.26, 21.5844, 0.000491485, NaN, NaN, NaN, 0.0592077, "- N/A -   "
0.27, 21.93823, 0.000510922, NaN, NaN, NaN, 0.0579869, "- N/A -   "
0.28, 22.29207, 0.000527583, NaN, NaN, NaN, 0.05676616, "- N/A -   "
0.29, 22.6459, 5.470201E-4, NaN, NaN, NaN, 0.0555454, "- N/A -   "
0.3, 22.9998, 5.664574E-4, NaN, NaN, NaN, 0.0543246, "- N/A -   "
0.31, 23.4715, 0.000588671, NaN, NaN, NaN, 0.0531038, "- N/A -   "
0.32, 23.82539, 0.000608109, NaN, NaN, NaN, 0.05066227, "- N/A -   "
0.33, 24.1792, 0.000627546, NaN, NaN, NaN, 0.0494415, "- N/A -   "
0.34, 24.5331, 0.000646983, NaN, NaN, NaN, 0.0482207, "- N/A -   "
0.35, 25.0049, 0.00066642, NaN, NaN, NaN, 0.04699994, "- N/A -   "
0.36, 25.3587, 6.858577E-4, NaN, NaN, NaN, 0.04577916, "- N/A -   "
0.37, 25.5946, 0.000705295, NaN, NaN, NaN, 0.0445584, "- N/A -   "
0.38, 26.0664, 0.000724732, NaN, NaN, NaN, 0.0433376, "- N/A -   "
0.39, 26.4202, 0.000744169, NaN, NaN, NaN, 0.04211683, "- N/A -   "
0.4, 26.892, 7.6083E-4, NaN, NaN, NaN, 0.04211683, "- N/A -   "
0.41, 27.1279, 0.000780267, NaN, NaN, NaN, 0.04089605, "- N/A -   "
0.42, 27.4818, 7.997045E-4, NaN, NaN, NaN, 0.0396753, "- N/A -   "
0.43, 27.95355, 8.191418E-4, NaN, NaN, NaN, 0.0396753, "- N/A -   "
0.44, 28.1894, 8.358023E-4, NaN, NaN, NaN, 0.0396753, "- N/A -   "
0.45, 28.54329, 8.524628E-4, NaN, NaN, NaN, 0.0384545, "- N/A -   "
0.46, 29.0151, 0.0008719, NaN, NaN, NaN, 0.0384545, "- N/A -   "
0.47, 29.251, 8.885606E-4, NaN, NaN, NaN, 0.0372337, "- N/A -   "
0.48, 29.6048, 9.052211E-4, NaN, NaN, NaN, 0.0372337, "- N/A -   "
0.49, 29.9587, 9.218816E-4, NaN, NaN, NaN, 0.0372337, "- N/A -   "
0.5, 30.1946, 9.385421E-4, NaN, NaN, NaN, 0.0384545, "- N/A -   "
0.51, 30.6663, 9.552026E-4, NaN, NaN, NaN, 0.0372337, "- N/A -   "
0.55, 32.08171, 0.00103017, NaN, NaN, NaN, 0.0335714, "- N/A -   "
0.59, 33.49708, 0.00109959, NaN, NaN, NaN, 0.0323506, "- N/A -   "
0.63, 34.9125, 0.00117179, NaN, NaN, NaN, 0.03112983, "- N/A -   "
0.67, 36.2099, 0.00123565, NaN, NaN, NaN, 0.03112983, "- N/A -   "
0.71, 37.5073, 0.001296743, NaN, NaN, NaN, 0.0347922, "- N/A -   "
0.75, 38.5688, 0.00135228, NaN, NaN, NaN, 0.0384545, "- N/A -   "
0.79, 39.7483, 0.00141337, NaN, NaN, NaN, 0.04089605, "- N/A -   "
0.83, 41.04572, 0.001477232, NaN, NaN, NaN, 0.04211683, "- N/A -   "
0.87, 42.579, 0.0015411, NaN, NaN, NaN, 0.0433376, "- N/A -   "
0.91, 43.9944, 0.00160774, NaN, NaN, NaN, 0.0433376, "- N/A -   "
0.95, 45.40978, 0.0016716, NaN, NaN, NaN, 0.0445584, "- N/A -   "
0.99, 46.9431, 0.0017438, NaN, NaN, NaN, 0.0433376, "- N/A -   "
1.03, 48.59436, 0.001816, NaN, NaN, NaN, 0.0396753, "- N/A -   "
1.07, 50.2456, 0.00189374, NaN, NaN, NaN, 0.03601294, "- N/A -   "
1.11, 52.01483, 0.00197149, NaN, NaN, NaN, 0.03112983, "- N/A -   "
1.15, 53.6661, 0.00204369, NaN, NaN, NaN, 0.0286883, "- N/A -   "
1.19, 55.3174, 0.00211033, NaN, NaN, NaN, 0.0274675, "- N/A -   "
1.23, 56.6148, 0.0021742, NaN, NaN, NaN, 0.0286883, "- N/A -   "
1.27, 57.79426, 0.00222973, NaN, NaN, NaN, 0.0335714, "- N/A -   "
1.31, 59.3276, 0.002293597, NaN, NaN, NaN, 0.0347922, "- N/A -   "
1.35, 60.8609, 0.00235746, NaN, NaN, NaN, 0.03601294, "- N/A -   "
1.39, 62.3942, 0.002426881, NaN, NaN, NaN, 0.0347922, "- N/A -   "
1.43, 64.04548, 0.0024963, NaN, NaN, NaN, 0.0347922, "- N/A -   "
1.47, 65.4608, 0.00255461, NaN, NaN, NaN, 0.0372337, "- N/A -   "
1.51, 66.64032, 0.00261015, NaN, NaN, NaN, 0.04211683, "- N/A -   "
1.55, 68.17364, 0.00267401, NaN, NaN, NaN, 0.0433376, "- N/A -   "
1.59, 69.8249, 0.00274065, NaN, NaN, NaN, 0.0445584, "- N/A -   "
1.63, 71.24027, 0.00280452, NaN, NaN, NaN, 0.0445584, "- N/A -   "
1.67, 73.2454, 0.00288505, NaN, NaN, NaN, 0.0384545, "- N/A -   "
1.71, 74.8966, 0.002957241, NaN, NaN, NaN, 0.03601294, "- N/A -   "
1.75, 76.6659, 0.00302944, NaN, NaN, NaN, 0.0335714, "- N/A -   "
1.79, 78.31712, 0.003098855, NaN, NaN, NaN, 0.0335714, "- N/A -   "
1.83, 79.85043, 0.003165497, NaN, NaN, NaN, 0.0335714, "- N/A -   "
1.87, 81.38376, 0.00322659, NaN, NaN, NaN, 0.0347922, "- N/A -   "
1.91, 82.79912, 0.00329045, NaN, NaN, NaN, 0.0372337, "- N/A -   "
1.95, 84.33244, 0.00335154, NaN, NaN, NaN, 0.0384545, "- N/A -   "
1.99, 86.1017, 0.003423735, NaN, NaN, NaN, 0.03601294, "- N/A -   "
2.03, 87.9888, 0.00350148, NaN, NaN, NaN, 0.0323506, "- N/A -   "
2.07, 89.52213, 0.00356257, NaN, NaN, NaN, 0.0335714, "- N/A -   "
2.11, 91.05545, 0.00362366, NaN, NaN, NaN, 0.03601294, "- N/A -   "
2.15, 92.47082, 0.00368475, NaN, NaN, NaN, 0.0396753, "- N/A -   "
2.19, 93.8862, 0.00374584, NaN, NaN, NaN, 0.04211683, "- N/A -   "
2.23, 95.6554, 0.003815257, NaN, NaN, NaN, 0.04089605, "- N/A -   "
2.27, 97.54256, 0.00388745, NaN, NaN, NaN, 0.0384545, "- N/A -   "
2.31, 99.1938, 0.003948541, NaN, NaN, NaN, 0.0396753, "- N/A -   "
2.35, 100.845, 0.00402074, NaN, NaN, NaN, 0.0372337, "- N/A -   "
2.39, 102.6143, 0.00409016, NaN, NaN, NaN, 0.03601294, "- N/A -   "
2.43, 104.266, 0.00415957, NaN, NaN, NaN, 0.0347922, "- N/A -   "
2.47, 105.917, 0.00422344, NaN, NaN, NaN, 0.0372337, "- N/A -   "
2.51, 107.3322, 0.004284528, NaN, NaN, NaN, 0.0384545, "- N/A -   "
2.55, 109.101, 0.00435672, NaN, NaN, NaN, 0.03601294, "- N/A -   "
2.59, 111.107, 0.00442892, NaN, NaN, NaN, 0.0335714, "- N/A -   "
2.63, 112.758, 0.004495561, NaN, NaN, NaN, 0.0335714, "- N/A -   "
2.67, 114.409, 0.00455943, NaN, NaN, NaN, 0.0347922, "- N/A -   "
2.71, 116.178, 0.004631622, NaN, NaN, NaN, 0.0323506, "- N/A -   "
[...]
35.86, 1596.74, 0.0598807, NaN, NaN, NaN, 0.0347922, "- N/A -   "
36.01, 1603.54, 0.0601278, NaN, NaN, NaN, 0.0347922, "- N/A -   "
36.16, 1610.57, 0.06038047, NaN, NaN, NaN, 0.0335714, "- N/A -   "
36.31, 1616.77, 0.0606082, NaN, NaN, NaN, 0.0433376, "- N/A -   "
36.46, 1624.047, 0.0608664, NaN, NaN, NaN, 0.0396753, "- N/A -   "
36.61, 1631.2, 0.0611219, NaN, NaN, NaN, 0.0372337, "- N/A -   "
36.76, 1638.48, 0.0613857, NaN, NaN, NaN, 0.03112983, "- N/A -   "
36.91, 1645.39, 0.06163279, NaN, NaN, NaN, 0.0323506, "- N/A -   "
37.06, 1651.71, 0.06186048, NaN, NaN, NaN, 0.04211683, "- N/A -   "
37.21, 1658.511, 0.0621048, NaN, NaN, NaN, 0.04577916, "- N/A -   "
37.36, 1666.26, 0.0623825, NaN, NaN, NaN, 0.0335714, "- N/A -   "
37.51, 1673.54, 0.06263797, NaN, NaN, NaN, 0.0299091, "- N/A -   "
37.66, 1679.62, 0.06286844, NaN, NaN, NaN, 0.0384545, "- N/A -   "
37.81, 1686.06, 0.06310169, NaN, NaN, NaN, 0.04577916, "- N/A -   "
37.96, 1693.81, 0.06337936, NaN, NaN, NaN, 0.0347922, "- N/A -   "
38.11, 1701.203, 0.06364315, NaN, NaN, NaN, 0.0274675, "- N/A -   "
38.26, 1707.76, 0.063882, NaN, NaN, NaN, 0.0335714, "- N/A -   "
38.41, 1713.84, 0.0641096, NaN, NaN, NaN, 0.0433376, "- N/A -   "
38.56, 1720.88, 0.06435955, NaN, NaN, NaN, 0.0433376, "- N/A -   "
38.71, 1728.75, 0.06464001, NaN, NaN, NaN, 0.0286883, "- N/A -   "
38.86, 1735.07, 0.06487048, NaN, NaN, NaN, 0.0372337, "- N/A -   "
39.01, 1741.99, 0.06512316, NaN, NaN, NaN, 0.03601294, "- N/A -   "
39.16, 1748.19, 0.06535363, NaN, NaN, NaN, 0.0445584, "- N/A -   "
39.31, 1756.3, 0.06564242, NaN, NaN, NaN, 0.0286883, "- N/A -   "
39.46, 1762.62, 0.0658701, NaN, NaN, NaN, 0.0372337, "- N/A -   "
39.61, 1770.01, 0.06613668, NaN, NaN, NaN, 0.0299091, "- N/A -   "
39.76, 1775.62, 0.06635604, NaN, NaN, NaN, 0.0433376, "- N/A -   "
39.91, 1782.77, 0.06660873, NaN, NaN, NaN, 0.0433376, "- N/A -   "
40.06, 1790.165, 0.0668781, NaN, NaN, NaN, 0.0347922, "- N/A -   "
40.21, 1797.2, 0.06713075, NaN, NaN, NaN, 0.0335714, "- N/A -   "
40.36, 1804, 0.06738344, NaN, NaN, NaN, 0.0335714, "- N/A -   "
40.51, 1809.96, 0.06760836, NaN, NaN, NaN, 0.0433376, "- N/A -   "
40.66, 1817.83, 0.06788603, NaN, NaN, NaN, 0.03112983, "- N/A -   "
40.81, 1824.27, 0.06812761, NaN, NaN, NaN, 0.0347922, "- N/A -   "
40.96, 1831.307, 0.06838585, NaN, NaN, NaN, 0.0323506, "- N/A -   "
41.11, 1837.27, 0.068608, NaN, NaN, NaN, 0.0433376, "- N/A -   "
41.26, 1844.067, 0.06885789, NaN, NaN, NaN, 0.0433376, "- N/A -   "
41.41, 1851.46, 0.06913002, NaN, NaN, NaN, 0.0347922, "- N/A -   "
41.56, 1858.62, 0.0693938, NaN, NaN, NaN, 0.0274675, "- N/A -   "
41.71, 1864.58, 0.0696187, NaN, NaN, NaN, 0.0384545, "- N/A -   "
41.86, 1870.9, 0.0698603, NaN, NaN, NaN, 0.04211683, "- N/A -   "
42.01, 1878.173, 0.07012965, NaN, NaN, NaN, 0.0335714, "- N/A -   "
42.16, 1885.21, 0.0703851, NaN, NaN, NaN, 0.03112983, "- N/A -   "
42.31, 1891.41, 0.07062113, NaN, NaN, NaN, 0.0372337, "- N/A -   "
42.46, 1897.85, 0.07086549, NaN, NaN, NaN, 0.04089605, "- N/A -   "
42.61, 1904.53, 0.07111262, NaN, NaN, NaN, 0.04089605, "- N/A -   "
42.76, 1911.8, 0.071382, NaN, NaN, NaN, 0.0335714, "- N/A -   "
42.91, 1918.361, 0.07162631, NaN, NaN, NaN, 0.0347922, "- N/A -   "
43.06, 1924.92, 0.07187345, NaN, NaN, NaN, 0.03601294, "- N/A -   "
43.21, 1931.36, 0.0721178, NaN, NaN, NaN, 0.0384545, "- N/A -   "
43.36, 1938.276, 0.07237326, NaN, NaN, NaN, 0.0372337, "- N/A -   "
43.51, 1945.07, 0.0726315, NaN, NaN, NaN, 0.0335714, "- N/A -   "
43.66, 1951.99, 0.07288418, NaN, NaN, NaN, 0.03112983, "- N/A -   "
43.78, 1956.88, 0.07307578, NaN, NaN, NaN, 0.03601294, "- N/A -   "

File: Hamel_ForceTest_Bolt8_Test1.csv
Time, Load (lb), Position (in), AxialStrain (in), TransverseStrain (in), Auxiliary (), Control Out (V), Stress (psi)
0.0,1.06153,0.0, NaN, NaN, NaN,0.09094793," ""- N/A -   """
0.01,1.29742,2.2214e-05, NaN, NaN, NaN,0.0872856," ""- N/A -   """
0.02,1.65126,4.442803e-05, NaN, NaN, NaN,0.084844," ""- N/A -   """
0.03,1.88716,6.6642e-05, NaN, NaN, NaN,0.08240249," ""- N/A -   """
0.04,2.241,9.16328e-05, NaN, NaN, NaN,0.07874016," ""- N/A -   """
0.05,2.59484,0.000116624, NaN, NaN, NaN,0.0762986," ""- N/A -   """
0.11,4.246109,0.000244354, NaN, NaN, NaN,0.06287005," ""- N/A -   """
0.17,5.897373,0.000358201, NaN, NaN, NaN,0.05676616," ""- N/A -   """
0.23,7.548638,0.0004776013, NaN, NaN, NaN,0.0482207," ""- N/A -   """
0.29,9.31785,0.000608109, NaN, NaN, NaN,0.0347922," ""- N/A -   """
0.35,10.8512,0.000716402, NaN, NaN, NaN,0.0323506," ""- N/A -   """
0.41,12.2665,0.000816365, NaN, NaN, NaN,0.03112983," ""- N/A -   """
0.47,13.564,0.0009107746, NaN, NaN, NaN,0.0347922," ""- N/A -   """
0.53,14.9793,0.00100518, NaN, NaN, NaN,0.03601294," ""- N/A -   """
0.59,16.3947,0.00110515, NaN, NaN, NaN,0.03601294," ""- N/A -   """
0.65,17.8101,0.001194, NaN, NaN, NaN,0.04089605," ""- N/A -   """
0.71,18.9895,0.00128564, NaN, NaN, NaN,0.0445584," ""- N/A -   """
0.77,20.4049,0.00138282, NaN, NaN, NaN,0.04699994," ""- N/A -   """
0.83,21.93823,0.00149112, NaN, NaN, NaN,0.04211683," ""- N/A -   """
0.89,23.7074,0.00161052, NaN, NaN, NaN,0.0335714," ""- N/A -   """
0.95,25.3587,0.00171881, NaN, NaN, NaN,0.0299091," ""- N/A -   """
1.01,26.5382,0.00181322, NaN, NaN, NaN,0.0323506," ""- N/A -   """
1.07,27.95355,0.00190485, NaN, NaN, NaN,0.03601294," ""- N/A -   """
1.13,29.6048,0.00201037, NaN, NaN, NaN,0.0347922," ""- N/A -   """
1.19,31.1381,0.002113108, NaN, NaN, NaN,0.0323506," ""- N/A -   """
1.25,32.4356,0.00220752, NaN, NaN, NaN,0.0347922," ""- N/A -   """
1.31,33.73298,0.002296374, NaN, NaN, NaN,0.04089605," ""- N/A -   """
1.37,35.2663,0.00239356, NaN, NaN, NaN,0.04089605," ""- N/A -   """
1.43,36.9176,0.00250185, NaN, NaN, NaN,0.0372337," ""- N/A -   """
1.49,38.3329,0.002593486, NaN, NaN, NaN,0.04089605," ""- N/A -   """
1.55,40.10214,0.002699, NaN, NaN, NaN,0.0384545," ""- N/A -   """
1.61,41.6355,0.00280174, NaN, NaN, NaN,0.0372337," ""- N/A -   """
1.67,43.2867,0.00290448, NaN, NaN, NaN,0.03601294," ""- N/A -   """
1.73,44.93799,0.003009999, NaN, NaN, NaN,0.0335714," ""- N/A -   """
1.79,46.5893,0.003109962, NaN, NaN, NaN,0.0347922," ""- N/A -   """
1.85,48.2405,0.003209925, NaN, NaN, NaN,0.0335714," ""- N/A -   """
1.91,49.6559,0.00330711, NaN, NaN, NaN,0.0347922," ""- N/A -   """
1.97,51.543,0.0034154, NaN, NaN, NaN,0.03112983," ""- N/A -   """
2.03,52.84047,0.00350148, NaN, NaN, NaN,0.0372337," ""- N/A -   """
2.09,54.3738,0.00359312, NaN, NaN, NaN,0.04089605," ""- N/A -   """
2.15,56.02505,0.00368753, NaN, NaN, NaN,0.0433376," ""- N/A -   """
2.21,57.79426,0.00378749, NaN, NaN, NaN,0.0445584," ""- N/A -   """
2.27,59.5635,0.00389578, NaN, NaN, NaN,0.0396753," ""- N/A -   """
2.33,61.6865,0.004015183, NaN, NaN, NaN,0.03112983," ""- N/A -   """
2.39,63.2198,0.00410959, NaN, NaN, NaN,0.0347922," ""- N/A -   """
2.45,64.98906,0.00420956, NaN, NaN, NaN,0.0347922," ""- N/A -   """
2.51,66.87622,0.004315072, NaN, NaN, NaN,0.03112983," ""- N/A -   """
2.57,68.6454,0.00441781, NaN, NaN, NaN,0.0299091," ""- N/A -   """
2.63,70.41464,0.004512222, NaN, NaN, NaN,0.0323506," ""- N/A -   """
2.69,71.94796,0.00460663, NaN, NaN, NaN,0.0347922," ""- N/A -   """
2.75,73.48127,0.00468993, NaN, NaN, NaN,0.0433376," ""- N/A -   """
2.81,75.13254,0.00478434, NaN, NaN, NaN,0.04577916," ""- N/A -   """
2.87,77.0197,0.004887083, NaN, NaN, NaN,0.0433376," ""- N/A -   """
2.93,79.0248,0.004998153, NaN, NaN, NaN,0.0384545," ""- N/A -   """
2.99,81.0299,0.005106447, NaN, NaN, NaN,0.03601294," ""- N/A -   """
3.05,82.79912,0.005209187, NaN, NaN, NaN,0.0335714," ""- N/A -   """
3.11,84.68629,0.005314703, NaN, NaN, NaN,0.03112983," ""- N/A -   """
3.17,86.4555,0.00541744, NaN, NaN, NaN,0.0299091," ""- N/A -   """
3.23,88.22471,0.005520183, NaN, NaN, NaN,0.0299091," ""- N/A -   """
3.29,89.6401,0.005609039, NaN, NaN, NaN,0.0335714," ""- N/A -   """
3.35,91.2913,0.00570067, NaN, NaN, NaN,0.0384545," ""- N/A -   """
3.41,92.70671,0.00578953, NaN, NaN, NaN,0.04211683," ""- N/A -   """
3.47,94.47592,0.00588394, NaN, NaN, NaN,0.0445584," ""- N/A -   """
3.53,96.12719,0.0059839, NaN, NaN, NaN,0.04577916," ""- N/A -   """
3.59,98.13229,0.00609497, NaN, NaN, NaN,0.04089605," ""- N/A -   """
3.65,100.137,0.00621437, NaN, NaN, NaN,0.0323506," ""- N/A -   """
3.71,102.025,0.006322664, NaN, NaN, NaN,0.0286883," ""- N/A -   """
3.77,103.794,0.00641985, NaN, NaN, NaN,0.0299091," ""- N/A -   """
3.83,105.445,0.006511484, NaN, NaN, NaN,0.0335714," ""- N/A -   """
3.89,107.3322,0.00660867, NaN, NaN, NaN,0.0347922," ""- N/A -   """
3.95,109.3373,0.006708632, NaN, NaN, NaN,0.0347922," ""- N/A -   """
4.01,111.107,0.00679749, NaN, NaN, NaN,0.0396753," ""- N/A -   """
4.07,112.994,0.00689745, NaN, NaN, NaN,0.0396753," ""- N/A -   """
4.13,114.881,0.00698908, NaN, NaN, NaN,0.0433376," ""- N/A -   """
4.19,116.768,0.007089048, NaN, NaN, NaN,0.0445584," ""- N/A -   """
4.25,119.127,0.007194564, NaN, NaN, NaN,0.04089605," ""- N/A -   """
4.31,121.486,0.007308411, NaN, NaN, NaN,0.0347922," ""- N/A -   """
4.37,123.609,0.0074167, NaN, NaN, NaN,0.03112983," ""- N/A -   """
4.43,125.496,0.00751111, NaN, NaN, NaN,0.0335714," ""- N/A -   """
4.49,127.265,0.007605523, NaN, NaN, NaN,0.0372337," ""- N/A -   """
4.55,129.506,0.007708263, NaN, NaN, NaN,0.0347922," ""- N/A -   """
4.61,131.276,0.007811003, NaN, NaN, NaN,0.0347922," ""- N/A -   """
4.67,133.163,0.007908189, NaN, NaN, NaN,0.0347922," ""- N/A -   """
4.73,134.578,0.00799982, NaN, NaN, NaN,0.0384545," ""- N/A -   """
4.79,136.347,0.008091455, NaN, NaN, NaN,0.04211683," ""- N/A -   """
4.85,138.352,0.008194195, NaN, NaN, NaN,0.04089605," ""- N/A -   """
4.91,140.1216,0.008294158, NaN, NaN, NaN,0.04089605," ""- N/A -   """
4.97,142.245,0.008408005, NaN, NaN, NaN,0.03601294," ""- N/A -   """
5.03,143.896,0.008505192, NaN, NaN, NaN,0.03601294," ""- N/A -   """
5.09,145.783,0.008602377, NaN, NaN, NaN,0.0372337," ""- N/A -   """
5.15,147.67,0.008707894, NaN, NaN, NaN,0.03601294," ""- N/A -   """
5.21,149.557,0.00880786, NaN, NaN, NaN,0.03601294," ""- N/A -   """
5.27,151.68,0.00891615, NaN, NaN, NaN,0.0323506," ""- N/A -   """
5.33,153.332,0.009013336, NaN, NaN, NaN,0.0323506," ""- N/A -   """
5.39,155.219,0.009110523, NaN, NaN, NaN,0.0347922," ""- N/A -   """
5.45,156.988,0.009202156, NaN, NaN, NaN,0.0372337," ""- N/A -   """
5.51,158.7573,0.009296565, NaN, NaN, NaN,0.0396753," ""- N/A -   """
5.57,160.644,0.009393752, NaN, NaN, NaN,0.04211683," ""- N/A -   """
5.63,162.65,0.009488161, NaN, NaN, NaN,0.0433376," ""- N/A -   """
5.69,164.655,0.009596454, NaN, NaN, NaN,0.0396753," ""- N/A -   """
5.75,166.896,0.009710301, NaN, NaN, NaN,0.0335714," ""- N/A -   """
5.81,168.783,0.00981304, NaN, NaN, NaN,0.0323506," ""- N/A -   """
5.87,170.906,0.009913004, NaN, NaN, NaN,0.0335714," ""- N/A -   """
5.93,172.793,0.010013, NaN, NaN, NaN,0.0323506," ""- N/A -   """
5.99,174.798,0.0101213, NaN, NaN, NaN,0.0299091," ""- N/A -   """
6.05,176.567,0.0102129, NaN, NaN, NaN,0.0323506," ""- N/A -   """
[...]
20.72,720.491,0.0346511, NaN, NaN, NaN,0.0384545," ""- N/A -   """
20.84,726.051,0.03487323, NaN, NaN, NaN,0.0286883," ""- N/A -   """
20.96,730.545,0.03505927, NaN, NaN, NaN,0.0335714," ""- N/A -   """
21.08,735.395,0.03524809, NaN, NaN, NaN,0.0384545," ""- N/A -   """
21.2,740.2444,0.03543691, NaN, NaN, NaN,0.0433376," ""- N/A -   """
21.32,745.6853,0.0356535, NaN, NaN, NaN,0.0372337," ""- N/A -   """
21.44,751.2445,0.0358701, NaN, NaN, NaN,0.0286883," ""- N/A -   """
21.56,755.7392,0.0360506, NaN, NaN, NaN,0.0372337," ""- N/A -   """
21.68,761.298,0.0362699, NaN, NaN, NaN,0.03112983," ""- N/A -   """
21.8,765.9113,0.0364532, NaN, NaN, NaN,0.0384545," ""- N/A -   """
21.92,770.6426,0.03663924, NaN, NaN, NaN,0.0433376," ""- N/A -   """
22.04,776.0835,0.0368531, NaN, NaN, NaN,0.0372337," ""- N/A -   """
22.16,781.17,0.0370558, NaN, NaN, NaN,0.0372337," ""- N/A -   """
22.28,786.3739,0.0372612, NaN, NaN, NaN,0.0347922," ""- N/A -   """
22.4,791.2234,0.0374556, NaN, NaN, NaN,0.03601294," ""- N/A -   """
22.52,796.191,0.0376528, NaN, NaN, NaN,0.0384545," ""- N/A -   """
22.64,800.804,0.0378416, NaN, NaN, NaN,0.04211683," ""- N/A -   """
22.76,806.363,0.0380554, NaN, NaN, NaN,0.0372337," ""- N/A -   """
22.88,811.686,0.03826364, NaN, NaN, NaN,0.0323506," ""- N/A -   """
23,816.772,0.0384663, NaN, NaN, NaN,0.0323506," ""- N/A -   """
23.12,821.858,0.0386663, NaN, NaN, NaN,0.03112983," ""- N/A -   """
23.24,825.8797,0.0388357, NaN, NaN, NaN,0.0445584," ""- N/A -   """
23.36,831.0841,0.03903558, NaN, NaN, NaN,0.04577916," ""- N/A -   """
23.48,836.8798,0.0392605, NaN, NaN, NaN,0.0335714," ""- N/A -   """
23.6,842.084,0.03946598, NaN, NaN, NaN,0.03112983," ""- N/A -   """
23.72,847.052,0.0396659, NaN, NaN, NaN,0.03112983," ""- N/A -   """
23.84,851.3101,0.03983806, NaN, NaN, NaN,0.0433376," ""- N/A -   """
23.96,856.3961,0.04004076, NaN, NaN, NaN,0.04211683," ""- N/A -   """
24.08,861.7188,0.04024902, NaN, NaN, NaN,0.0384545," ""- N/A -   """
24.2,867.5146,0.0404739, NaN, NaN, NaN,0.0274675," ""- N/A -   """
24.32,872.3641,0.0406655, NaN, NaN, NaN,0.03112983," ""- N/A -   """
24.44,877.214,0.0408571, NaN, NaN, NaN,0.0347922," ""- N/A -   """
24.56,881.827,0.04104317, NaN, NaN, NaN,0.04089605," ""- N/A -   """
24.68,886.676,0.04123199, NaN, NaN, NaN,0.04577916," ""- N/A -   """
24.8,892.7084,0.04145968, NaN, NaN, NaN,0.0335714," ""- N/A -   """
24.92,897.4396,0.0416541, NaN, NaN, NaN,0.03601294," ""- N/A -   """
25.04,902.8805,0.0418623, NaN, NaN, NaN,0.0335714," ""- N/A -   """
25.16,907.8483,0.0420567, NaN, NaN, NaN,0.0347922," ""- N/A -   """
25.28,912.4613,0.0422427, NaN, NaN, NaN,0.04089605," ""- N/A -   """
25.4,917.784,0.04244543, NaN, NaN, NaN,0.0396753," ""- N/A -   """
25.52,923.225,0.0426565, NaN, NaN, NaN,0.03601294," ""- N/A -   """
25.64,928.5475,0.0428675, NaN, NaN, NaN,0.0299091," ""- N/A -   """
25.76,933.515,0.0430619, NaN, NaN, NaN,0.0323506," ""- N/A -   """
25.88,938.6014,0.043259, NaN, NaN, NaN,0.0335714," ""- N/A -   """
26,942.9778,0.0434423, NaN, NaN, NaN,0.04211683," ""- N/A -   """
26.12,947.946,0.04363388, NaN, NaN, NaN,0.04577916," ""- N/A -   """
26.24,953.978,0.04386157, NaN, NaN, NaN,0.0335714," ""- N/A -   """
26.36,959.064,0.0440615, NaN, NaN, NaN,0.0347922," ""- N/A -   """
26.48,964.6231,0.04427253, NaN, NaN, NaN,0.0286883," ""- N/A -   """
26.6,968.763,0.0444419, NaN, NaN, NaN,0.04211683," ""- N/A -   """
26.72,973.4942,0.04463351, NaN, NaN, NaN,0.04577916," ""- N/A -   """
26.84,979.29,0.04485287, NaN, NaN, NaN,0.0384545," ""- N/A -   """
26.843,979.527,0.0448584, NaN, NaN, NaN,0.0372337," ""- N/A -   """