Folder: DigitalTwins-Machine-Learning/2_Tensile_Data (part 22)

File: Hamel_ForceTest_Bolt6_Test9.csv
Time, Load (lb), Position (in), AxialStrain (in), TransverseStrain (in), Auxiliary (), Control Out (V), Stress (psi)
0.0, 12.9742, 0.0, NaN, NaN, NaN, -0.007935055, "- N/A -   "
0.01, 12.9742, -2.776752E-6, NaN, NaN, NaN, 6.103888E-4, "- N/A -   "
0.02, 12.9742, 0.0, NaN, NaN, NaN, 0.006714277, "- N/A -   "
0.03, 12.9742, 0.0, NaN, NaN, NaN, 0.0238052, "- N/A -   "
0.04, 12.9742, 5.553504E-6, NaN, NaN, NaN, 0.04089605, "- N/A -   "
0.05, 13.09217, 1.38838e-05, NaN, NaN, NaN, 0.05676616, "- N/A -   "
0.06, 13.446, 2.77675e-05, NaN, NaN, NaN, 0.0701947, "- N/A -   "
0.07, 13.7999, 4.442803E-5, NaN, NaN, NaN, 0.08240249, "- N/A -   "
0.08, 14.2716, 7.21955e-05, NaN, NaN, NaN, 0.09094793, "- N/A -   "
0.09, 14.8614, 9.718631E-5, NaN, NaN, NaN, 0.0982726, "- N/A -   "
0.1, 15.4511, 0.000127731, NaN, NaN, NaN, 0.105597, "- N/A -   "
0.11, 16.0409, 1.610516E-4, NaN, NaN, NaN, 0.0982726, "- N/A -   "
0.12, 16.74854, 0.000191596, NaN, NaN, NaN, 0.09094793, "- N/A -   "
0.13, 17.3383, 2.193634E-4, NaN, NaN, NaN, 0.08606482, "- N/A -   "
0.14, 17.8101, 0.000244354, NaN, NaN, NaN, 0.08240249, "- N/A -   "
0.15, 18.16391, 0.000269345, NaN, NaN, NaN, 0.07874016, "- N/A -   "
0.16, 18.6357, 0.000291559, NaN, NaN, NaN, 0.0762986, "- N/A -   "
0.17, 19.1075, 0.000313773, NaN, NaN, NaN, 0.0750778, "- N/A -   "
0.18, 19.3434, 0.000330433, NaN, NaN, NaN, 0.07385705, "- N/A -   "
0.19, 19.8152, 0.000349871, NaN, NaN, NaN, 0.07263627, "- N/A -   "
0.2, 20.287, 3.69308E-4, NaN, NaN, NaN, 0.07141549, "- N/A -   "
0.21, 20.52286, 0.000391522, NaN, NaN, NaN, 0.0701947, "- N/A -   "
0.22, 20.8767, 0.000410959, NaN, NaN, NaN, 0.0689739, "- N/A -   "
0.23, 21.3485, 0.000430397, NaN, NaN, NaN, 0.06775316, "- N/A -   "
0.24, 21.7023, 0.000449834, NaN, NaN, NaN, 0.0653116, "- N/A -   "
0.25, 22.1741, 0.000469271, NaN, NaN, NaN, 0.0640908, "- N/A -   "
0.26, 22.528, 0.000491485, NaN, NaN, NaN, 0.06287005, "- N/A -   "
0.27, 22.88181, 5.081456E-4, NaN, NaN, NaN, 0.06164927, "- N/A -   "
0.28, 23.2357, 0.000527583, NaN, NaN, NaN, 0.0604285, "- N/A -   "
0.29, 23.5895, 5.470201E-4, NaN, NaN, NaN, 0.0592077, "- N/A -   "
0.3, 23.9433, 5.664574E-4, NaN, NaN, NaN, 0.0579869, "- N/A -   "
0.31, 24.29718, 0.000588671, NaN, NaN, NaN, 0.0555454, "- N/A -   "
0.32, 24.769, 0.000608109, NaN, NaN, NaN, 0.0543246, "- N/A -   "
0.33, 25.2408, 0.000630323, NaN, NaN, NaN, 0.0531038, "- N/A -   "
0.34, 25.4767, 0.000646983, NaN, NaN, NaN, 0.05188305, "- N/A -   "
0.35, 25.8305, 6.691972E-4, NaN, NaN, NaN, 0.05066227, "- N/A -   "
0.36, 26.3023, 0.000688634, NaN, NaN, NaN, 0.0482207, "- N/A -   "
0.37, 26.6561, 7.108485E-4, NaN, NaN, NaN, 0.04577916, "- N/A -   "
0.38, 27.1279, 7.302857E-4, NaN, NaN, NaN, 0.0445584, "- N/A -   "
0.39, 27.4818, 0.0007525, NaN, NaN, NaN, 0.0433376, "- N/A -   "
0.4, 27.7177, 7.691603E-4, NaN, NaN, NaN, 0.04211683, "- N/A -   "
0.41, 28.3074, 7.885975E-4, NaN, NaN, NaN, 0.04089605, "- N/A -   "
0.42, 28.6612, 8.080348E-4, NaN, NaN, NaN, 0.0396753, "- N/A -   "
0.43, 29.0151, 8.27472E-4, NaN, NaN, NaN, 0.0396753, "- N/A -   "
0.44, 29.251, 0.000844133, NaN, NaN, NaN, 0.0384545, "- N/A -   "
0.45, 29.6048, 0.000860793, NaN, NaN, NaN, 0.0384545, "- N/A -   "
0.46, 29.84071, 8.774536E-4, NaN, NaN, NaN, 0.0384545, "- N/A -   "
0.47, 30.1946, 8.968908E-4, NaN, NaN, NaN, 0.0372337, "- N/A -   "
0.48, 30.5484, 0.000913551, NaN, NaN, NaN, 0.0372337, "- N/A -   "
0.49, 31.0202, 9.329886E-4, NaN, NaN, NaN, 0.03601294, "- N/A -   "
0.5, 31.374, 9.524259E-4, NaN, NaN, NaN, 0.0347922, "- N/A -   "
0.51, 31.72787, 0.000971863, NaN, NaN, NaN, 0.0335714, "- N/A -   "
0.55, 33.1432, 0.00104406, NaN, NaN, NaN, 0.03112983, "- N/A -   "
0.59, 34.3227, 0.0011107, NaN, NaN, NaN, 0.03112983, "- N/A -   "
0.63, 35.7381, 0.00117734, NaN, NaN, NaN, 0.03112983, "- N/A -   "
0.67, 36.9176, 0.001241208, NaN, NaN, NaN, 0.0335714, "- N/A -   "
0.71, 38.097, 0.0013023, NaN, NaN, NaN, 0.03601294, "- N/A -   "
0.75, 39.2765, 0.00136339, NaN, NaN, NaN, 0.0384545, "- N/A -   "
0.79, 40.456, 0.00142447, NaN, NaN, NaN, 0.04089605, "- N/A -   "
0.83, 41.6355, 0.00148279, NaN, NaN, NaN, 0.0433376, "- N/A -   "
0.87, 42.8149, 0.00154943, NaN, NaN, NaN, 0.0433376, "- N/A -   "
0.91, 44.2303, 0.00161885, NaN, NaN, NaN, 0.0433376, "- N/A -   "
0.95, 45.6457, 0.00168271, NaN, NaN, NaN, 0.0433376, "- N/A -   "
0.99, 47.061, 0.00175491, NaN, NaN, NaN, 0.04211683, "- N/A -   "
1.03, 48.47641, 0.00182155, NaN, NaN, NaN, 0.04089605, "- N/A -   "
1.07, 50.0097, 0.0018993, NaN, NaN, NaN, 0.03601294, "- N/A -   "
1.11, 51.66099, 0.001982601, NaN, NaN, NaN, 0.0286883, "- N/A -   "
1.15, 53.0764, 0.00205202, NaN, NaN, NaN, 0.0274675, "- N/A -   "
1.19, 54.4917, 0.00211866, NaN, NaN, NaN, 0.0274675, "- N/A -   "
1.23, 55.6712, 0.00217975, NaN, NaN, NaN, 0.03112983, "- N/A -   "
1.27, 56.85068, 0.00224084, NaN, NaN, NaN, 0.0323506, "- N/A -   "
1.31, 58.384, 0.002304704, NaN, NaN, NaN, 0.0335714, "- N/A -   "
1.35, 59.68142, 0.00237412, NaN, NaN, NaN, 0.0323506, "- N/A -   "
1.39, 61.09679, 0.00243521, NaN, NaN, NaN, 0.0347922, "- N/A -   "
1.43, 62.3942, 0.00249908, NaN, NaN, NaN, 0.0372337, "- N/A -   "
1.47, 63.6916, 0.00256017, NaN, NaN, NaN, 0.0384545, "- N/A -   "
1.51, 64.98906, 0.00262125, NaN, NaN, NaN, 0.04089605, "- N/A -   "
1.55, 66.16853, 0.00267957, NaN, NaN, NaN, 0.0445584, "- N/A -   "
1.59, 67.46596, 0.002743431, NaN, NaN, NaN, 0.04577916, "- N/A -   "
1.63, 68.8813, 0.00281007, NaN, NaN, NaN, 0.04577916, "- N/A -   "
1.67, 70.6505, 0.002887822, NaN, NaN, NaN, 0.04211683, "- N/A -   "
1.71, 72.3018, 0.00296279, NaN, NaN, NaN, 0.0372337, "- N/A -   "
1.75, 73.71717, 0.00303499, NaN, NaN, NaN, 0.03601294, "- N/A -   "
1.79, 75.36844, 0.00310441, NaN, NaN, NaN, 0.0335714, "- N/A -   "
1.83, 76.6659, 0.00317105, NaN, NaN, NaN, 0.0335714, "- N/A -   "
1.87, 78.08122, 0.00323769, NaN, NaN, NaN, 0.0347922, "- N/A -   "
1.91, 79.37865, 0.003298781, NaN, NaN, NaN, 0.03601294, "- N/A -   "
1.95, 80.794, 0.00336542, NaN, NaN, NaN, 0.03601294, "- N/A -   "
1.99, 82.32734, 0.00343762, NaN, NaN, NaN, 0.0335714, "- N/A -   "
2.03, 83.86065, 0.00350704, NaN, NaN, NaN, 0.0335714, "- N/A -   "
2.07, 85.15807, 0.00356535, NaN, NaN, NaN, 0.03601294, "- N/A -   "
2.11, 86.57345, 0.00362644, NaN, NaN, NaN, 0.0384545, "- N/A -   "
2.15, 87.75292, 0.0036903, NaN, NaN, NaN, 0.0396753, "- N/A -   "
2.19, 89.16828, 0.00375139, NaN, NaN, NaN, 0.04211683, "- N/A -   "
2.23, 90.70161, 0.003826364, NaN, NaN, NaN, 0.0396753, "- N/A -   "
2.27, 92.35287, 0.00389301, NaN, NaN, NaN, 0.0384545, "- N/A -   "
2.31, 93.65029, 0.003962425, NaN, NaN, NaN, 0.0384545, "- N/A -   "
2.35, 95.18361, 0.00403462, NaN, NaN, NaN, 0.03601294, "- N/A -   "
2.39, 96.71693, 0.00410126, NaN, NaN, NaN, 0.03601294, "- N/A -   "
2.43, 98.13229, 0.004165128, NaN, NaN, NaN, 0.03601294, "- N/A -   "
2.47, 99.54767, 0.00423177, NaN, NaN, NaN, 0.03601294, "- N/A -   "
2.51, 100.963, 0.00430397, NaN, NaN, NaN, 0.0347922, "- N/A -   "
2.55, 102.6143, 0.004376161, NaN, NaN, NaN, 0.03112983, "- N/A -   "
2.59, 103.912, 0.00444003, NaN, NaN, NaN, 0.0323506, "- N/A -   "
2.63, 105.209, 0.00450667, NaN, NaN, NaN, 0.0323506, "- N/A -   "
2.67, 106.86, 0.004576087, NaN, NaN, NaN, 0.0323506, "- N/A -   "
2.71, 108.158, 0.00463718, NaN, NaN, NaN, 0.0335714, "- N/A -   "
[...]
38.3, 1573.13, 0.06393749, NaN, NaN, NaN, 0.04089605, "- N/A -   "
38.37, 1576.11, 0.06404301, NaN, NaN, NaN, 0.04577916, "- N/A -   "
38.44, 1579.45, 0.06416518, NaN, NaN, NaN, 0.0433376, "- N/A -   "
38.51, 1582.79, 0.0642846, NaN, NaN, NaN, 0.0433376, "- N/A -   "
38.58, 1586.125, 0.06440676, NaN, NaN, NaN, 0.04089605, "- N/A -   "
38.65, 1590.06, 0.0645428, NaN, NaN, NaN, 0.03112983, "- N/A -   "
38.72, 1593.52, 0.06467055, NaN, NaN, NaN, 0.0274675, "- N/A -   "
38.79, 1596.5, 0.06477606, NaN, NaN, NaN, 0.0323506, "- N/A -   "
38.86, 1599.36, 0.06487881, NaN, NaN, NaN, 0.0372337, "- N/A -   "
38.93, 1602.46, 0.06499543, NaN, NaN, NaN, 0.0384545, "- N/A -   "
39, 1605.8, 0.0651121, NaN, NaN, NaN, 0.0372337, "- N/A -   "
39.07, 1608.54, 0.0652148, NaN, NaN, NaN, 0.0433376, "- N/A -   "
39.14, 1611.64, 0.06532864, NaN, NaN, NaN, 0.04577916, "- N/A -   "
39.21, 1615.46, 0.0654619, NaN, NaN, NaN, 0.0384545, "- N/A -   "
39.28, 1619.28, 0.06559799, NaN, NaN, NaN, 0.0286883, "- N/A -   "
39.35, 1622.616, 0.06571461, NaN, NaN, NaN, 0.0286883, "- N/A -   "
39.42, 1625.36, 0.0658229, NaN, NaN, NaN, 0.0323506, "- N/A -   "
39.49, 1628.58, 0.06593953, NaN, NaN, NaN, 0.0323506, "- N/A -   "
39.56, 1632.04, 0.06605893, NaN, NaN, NaN, 0.03112983, "- N/A -   "
39.63, 1634.78, 0.06616166, NaN, NaN, NaN, 0.0372337, "- N/A -   "
39.7, 1637.64, 0.0662672, NaN, NaN, NaN, 0.04211683, "- N/A -   "
39.77, 1640.86, 0.06638381, NaN, NaN, NaN, 0.04211683, "- N/A -   "
39.84, 1644.08, 0.0665032, NaN, NaN, NaN, 0.0433376, "- N/A -   "
39.91, 1647.54, 0.06662816, NaN, NaN, NaN, 0.0396753, "- N/A -   "
39.98, 1650.76, 0.06674479, NaN, NaN, NaN, 0.0396753, "- N/A -   "
40.05, 1654.22, 0.066867, NaN, NaN, NaN, 0.0372337, "- N/A -   "
40.12, 1657.56, 0.06699192, NaN, NaN, NaN, 0.0335714, "- N/A -   "
40.19, 1660.66, 0.06710576, NaN, NaN, NaN, 0.0347922, "- N/A -   "
40.26, 1663.88, 0.06722239, NaN, NaN, NaN, 0.0347922, "- N/A -   "
40.33, 1667.22, 0.06734179, NaN, NaN, NaN, 0.0335714, "- N/A -   "
40.4, 1670.2, 0.0674473, NaN, NaN, NaN, 0.0372337, "- N/A -   "
40.47, 1673.06, 0.06755837, NaN, NaN, NaN, 0.04089605, "- N/A -   "
40.54, 1675.92, 0.0676611, NaN, NaN, NaN, 0.04577916, "- N/A -   "
40.61, 1679.14, 0.06778329, NaN, NaN, NaN, 0.0433376, "- N/A -   "
40.68, 1682.96, 0.06791658, NaN, NaN, NaN, 0.03601294, "- N/A -   "
40.75, 1686.42, 0.0680443, NaN, NaN, NaN, 0.03112983, "- N/A -   "
40.82, 1689.52, 0.06816093, NaN, NaN, NaN, 0.03112983, "- N/A -   "
40.89, 1692.97, 0.0682831, NaN, NaN, NaN, 0.0299091, "- N/A -   "
40.96, 1695.956, 0.068397, NaN, NaN, NaN, 0.03112983, "- N/A -   "
41.03, 1698.82, 0.06850247, NaN, NaN, NaN, 0.0347922, "- N/A -   "
41.1, 1701.32, 0.06859688, NaN, NaN, NaN, 0.0445584, "- N/A -   "
41.17, 1704.3, 0.06870517, NaN, NaN, NaN, 0.0482207, "- N/A -   "
41.24, 1707.64, 0.0688329, NaN, NaN, NaN, 0.0433376, "- N/A -   "
41.31, 1711.22, 0.06896341, NaN, NaN, NaN, 0.0384545, "- N/A -   "
41.38, 1714.44, 0.06908003, NaN, NaN, NaN, 0.0372337, "- N/A -   "
41.45, 1717.78, 0.069205, NaN, NaN, NaN, 0.0335714, "- N/A -   "
41.52, 1721.24, 0.06933272, NaN, NaN, NaN, 0.0286883, "- N/A -   "
41.59, 1724.338, 0.06944934, NaN, NaN, NaN, 0.0299091, "- N/A -   "
41.66, 1727.2, 0.06955486, NaN, NaN, NaN, 0.0347922, "- N/A -   "
41.73, 1729.7, 0.06965482, NaN, NaN, NaN, 0.04089605, "- N/A -   "
41.8, 1732.69, 0.06976867, NaN, NaN, NaN, 0.0433376, "- N/A -   "
41.87, 1735.91, 0.06988529, NaN, NaN, NaN, 0.0433376, "- N/A -   "
41.94, 1739.13, 0.0700075, NaN, NaN, NaN, 0.0396753, "- N/A -   "
41.978, 1740.914, 0.07007133, NaN, NaN, NaN, 0.0396753, "- N/A -   "

File: Hamel_ForceTest_Bolt6_Test10.csv
Time, Load (lb), Position (in), AxialStrain (in), TransverseStrain (in), Auxiliary (), Control Out (V), Stress (psi)
0.0, 13.564, 0.0, NaN, NaN, NaN, -0.007935055, "- N/A -   "
0.01, 13.564, 0.0, NaN, NaN, NaN, -6.103888E-4, "- N/A -   "
0.02, 13.6819, 0.0, NaN, NaN, NaN, 0.0115974, "- N/A -   "
0.03, 13.6819, 2.776752E-6, NaN, NaN, NaN, 0.0299091, "- N/A -   "
0.04, 13.7999, 8.330256E-6, NaN, NaN, NaN, 0.04699994, "- N/A -   "
0.05, 14.0357, 2.2214e-05, NaN, NaN, NaN, 0.06164927, "- N/A -   "
0.06, 14.2716, 3.60978e-05, NaN, NaN, NaN, 0.07385705, "- N/A -   "
0.07, 14.7434, 5.83118e-05, NaN, NaN, NaN, 0.084844, "- N/A -   "
0.08, 15.3332, 8.607931E-5, NaN, NaN, NaN, 0.09216871, "- N/A -   "
0.09, 15.805, 0.000113847, NaN, NaN, NaN, 0.09949338, "- N/A -   "
0.1, 16.5126, 0.000144391, NaN, NaN, NaN, 0.101935, "- N/A -   "
0.11, 16.9844, 0.000177712, NaN, NaN, NaN, 0.095831, "- N/A -   "
0.12, 17.5742, 0.000208256, NaN, NaN, NaN, 0.0897272, "- N/A -   "
0.13, 18.046, 0.000238801, NaN, NaN, NaN, 0.08362327, "- N/A -   "
0.14, 18.6357, 0.000263791, NaN, NaN, NaN, 0.0799609, "- N/A -   "
0.15, 18.9895, 0.000288782, NaN, NaN, NaN, 0.0762986, "- N/A -   "
0.16, 19.3434, 3.109962E-4, NaN, NaN, NaN, 0.07385705, "- N/A -   "
0.17, 19.6972, 0.000330433, NaN, NaN, NaN, 0.07141549, "- N/A -   "
0.18, 20.05107, 0.000352647, NaN, NaN, NaN, 0.0701947, "- N/A -   "
0.19, 20.52286, 0.000372085, NaN, NaN, NaN, 0.06775316, "- N/A -   "
0.2, 20.7588, 0.000394299, NaN, NaN, NaN, 0.0653116, "- N/A -   "
0.21, 21.2305, 4.13736E-4, NaN, NaN, NaN, 0.0640908, "- N/A -   "
0.22, 21.46644, 4.331733E-4, NaN, NaN, NaN, 0.06287005, "- N/A -   "
0.23, 21.7023, 0.000449834, NaN, NaN, NaN, 0.06287005, "- N/A -   "
0.24, 21.93823, 0.000469271, NaN, NaN, NaN, 0.06164927, "- N/A -   "
0.25, 22.29207, 4.887083E-4, NaN, NaN, NaN, 0.06164927, "- N/A -   "
0.26, 22.6459, 5.053688E-4, NaN, NaN, NaN, 0.0604285, "- N/A -   "
0.27, 22.9998, 5.248061E-4, NaN, NaN, NaN, 0.0592077, "- N/A -   "
0.28, 23.1177, 5.442434E-4, NaN, NaN, NaN, 0.0579869, "- N/A -   "
0.29, 23.5895, 5.664574E-4, NaN, NaN, NaN, 0.05676616, "- N/A -   "
0.3, 23.9433, 5.858946E-4, NaN, NaN, NaN, 0.0555454, "- N/A -   "
0.31, 24.1792, 6.053319E-4, NaN, NaN, NaN, 0.0531038, "- N/A -   "
0.33, 25.0049, 6.442064E-4, NaN, NaN, NaN, 0.05066227, "- N/A -   "
0.35, 25.4767, 6.858577E-4, NaN, NaN, NaN, 0.04699994, "- N/A -   "
0.37, 26.18434, 7.27509E-4, NaN, NaN, NaN, 0.0445584, "- N/A -   "
0.39, 26.892, 7.663835E-4, NaN, NaN, NaN, 0.04089605, "- N/A -   "
0.41, 27.3638, 0.000802481, NaN, NaN, NaN, 0.0396753, "- N/A -   "
0.43, 28.0715, 8.358023E-4, NaN, NaN, NaN, 0.0396753, "- N/A -   "
0.45, 28.54329, 0.0008719, NaN, NaN, NaN, 0.0384545, "- N/A -   "
0.47, 29.133, 0.000907998, NaN, NaN, NaN, 0.0384545, "- N/A -   "
0.49, 29.6048, 9.440956E-4, NaN, NaN, NaN, 0.03601294, "- N/A -   "
0.51, 30.1946, 9.774166E-4, NaN, NaN, NaN, 0.03601294, "- N/A -   "
0.53, 30.78429, 0.00101629, NaN, NaN, NaN, 0.0335714, "- N/A -   "
0.55, 31.492, 0.00105239, NaN, NaN, NaN, 0.0323506, "- N/A -   "
0.57, 31.9638, 0.00108571, NaN, NaN, NaN, 0.0323506, "- N/A -   "
0.59, 32.5535, 0.00112181, NaN, NaN, NaN, 0.03112983, "- N/A -   "
0.61, 33.02529, 0.001152352, NaN, NaN, NaN, 0.0323506, "- N/A -   "
0.63, 33.61503, 0.00118845, NaN, NaN, NaN, 0.03112983, "- N/A -   "
0.65, 34.08682, 0.00122177, NaN, NaN, NaN, 0.03112983, "- N/A -   "
0.67, 34.6766, 0.00125232, NaN, NaN, NaN, 0.0323506, "- N/A -   "
0.69, 35.1483, 0.00128286, NaN, NaN, NaN, 0.0335714, "- N/A -   "
0.71, 35.6201, 0.00131063, NaN, NaN, NaN, 0.03601294, "- N/A -   "
0.73, 36.0919, 0.00134117, NaN, NaN, NaN, 0.0372337, "- N/A -   "
0.75, 36.6817, 0.00137172, NaN, NaN, NaN, 0.0384545, "- N/A -   "
0.77, 37.0355, 0.00140226, NaN, NaN, NaN, 0.0396753, "- N/A -   "
0.79, 37.5073, 0.00143003, NaN, NaN, NaN, 0.04211683, "- N/A -   "
0.81, 37.9791, 0.00146335, NaN, NaN, NaN, 0.0433376, "- N/A -   "
0.83, 38.5688, 0.00149389, NaN, NaN, NaN, 0.0445584, "- N/A -   "
0.85, 39.04061, 0.00152444, NaN, NaN, NaN, 0.0445584, "- N/A -   "
0.87, 39.7483, 0.00156053, NaN, NaN, NaN, 0.0433376, "- N/A -   "
0.89, 40.33803, 0.00159386, NaN, NaN, NaN, 0.0433376, "- N/A -   "
0.91, 40.8098, 0.00162718, NaN, NaN, NaN, 0.0433376, "- N/A -   "
0.93, 41.39956, 0.0016605, NaN, NaN, NaN, 0.0433376, "- N/A -   "
0.95, 41.9893, 0.00169382, NaN, NaN, NaN, 0.0433376, "- N/A -   "
0.97, 42.579, 0.00172992, NaN, NaN, NaN, 0.04211683, "- N/A -   "
0.99, 43.1688, 0.00176601, NaN, NaN, NaN, 0.04089605, "- N/A -   "
1.01, 43.87646, 0.001802112, NaN, NaN, NaN, 0.0396753, "- N/A -   "
1.03, 44.34825, 0.001835433, NaN, NaN, NaN, 0.0396753, "- N/A -   "
1.05, 44.93799, 0.00187153, NaN, NaN, NaN, 0.0384545, "- N/A -   "
1.07, 45.76362, 0.00191596, NaN, NaN, NaN, 0.0347922, "- N/A -   "
1.09, 46.4713, 0.00195761, NaN, NaN, NaN, 0.0299091, "- N/A -   "
1.11, 47.179, 0.00199648, NaN, NaN, NaN, 0.0286883, "- N/A -   "
1.13, 47.7687, 0.00202981, NaN, NaN, NaN, 0.0274675, "- N/A -   "
1.15, 48.2405, 0.00206313, NaN, NaN, NaN, 0.0274675, "- N/A -   "
1.17, 48.83025, 0.002093671, NaN, NaN, NaN, 0.0286883, "- N/A -   "
1.19, 49.30204, 0.002126992, NaN, NaN, NaN, 0.0286883, "- N/A -   "
1.21, 49.8918, 0.00216031, NaN, NaN, NaN, 0.0286883, "- N/A -   "
1.23, 50.3636, 0.002193634, NaN, NaN, NaN, 0.0286883, "- N/A -   "
1.25, 51.0713, 0.002226955, NaN, NaN, NaN, 0.0286883, "- N/A -   "
1.27, 51.543, 0.0022575, NaN, NaN, NaN, 0.0299091, "- N/A -   "
1.29, 52.01483, 0.00229082, NaN, NaN, NaN, 0.03112983, "- N/A -   "
1.31, 52.6046, 0.00231859, NaN, NaN, NaN, 0.0323506, "- N/A -   "
1.33, 53.0764, 0.002349132, NaN, NaN, NaN, 0.0335714, "- N/A -   "
1.35, 53.54815, 0.00237968, NaN, NaN, NaN, 0.0347922, "- N/A -   "
1.37, 54.2558, 0.00241022, NaN, NaN, NaN, 0.03601294, "- N/A -   "
1.39, 54.7276, 0.00244076, NaN, NaN, NaN, 0.0372337, "- N/A -   "
1.41, 55.1994, 0.00247131, NaN, NaN, NaN, 0.0384545, "- N/A -   "
1.43, 55.6712, 0.00250463, NaN, NaN, NaN, 0.0396753, "- N/A -   "
1.45, 56.2609, 0.002537951, NaN, NaN, NaN, 0.0396753, "- N/A -   "
1.47, 56.85068, 0.0025685, NaN, NaN, NaN, 0.04089605, "- N/A -   "
1.49, 57.32247, 0.002596263, NaN, NaN, NaN, 0.04211683, "- N/A -   "
1.51, 57.91221, 0.00262958, NaN, NaN, NaN, 0.0433376, "- N/A -   "
1.53, 58.5019, 0.00266013, NaN, NaN, NaN, 0.0433376, "- N/A -   "
1.55, 58.9737, 0.00269067, NaN, NaN, NaN, 0.0445584, "- N/A -   "
1.57, 59.4455, 0.00272399, NaN, NaN, NaN, 0.04577916, "- N/A -   "
1.59, 59.9173, 0.002751761, NaN, NaN, NaN, 0.04699994, "- N/A -   "
1.61, 60.625, 0.00278508, NaN, NaN, NaN, 0.04699994, "- N/A -   "
1.63, 61.09679, 0.0028184, NaN, NaN, NaN, 0.04699994, "- N/A -   "
1.65, 61.8045, 0.00285728, NaN, NaN, NaN, 0.04577916, "- N/A -   "
1.67, 62.6301, 0.00289615, NaN, NaN, NaN, 0.0433376, "- N/A -   "
1.69, 63.33779, 0.00293503, NaN, NaN, NaN, 0.0396753, "- N/A -   "
1.71, 64.04548, 0.0029739, NaN, NaN, NaN, 0.0372337, "- N/A -   "
1.73, 64.6352, 0.003012776, NaN, NaN, NaN, 0.03601294, "- N/A -   "
1.75, 65.4608, 0.00305165, NaN, NaN, NaN, 0.0323506, "- N/A -   "
1.77, 66.05058, 0.003087748, NaN, NaN, NaN, 0.03112983, "- N/A -   "
1.79, 66.64032, 0.003123846, NaN, NaN, NaN, 0.0299091, "- N/A -   "
1.81, 67.1121, 0.003157167, NaN, NaN, NaN, 0.0299091, "- N/A -   "
1.83, 67.70185, 0.00318771, NaN, NaN, NaN, 0.03112983, "- N/A -   "
[...]
38.05, 1579.924, 0.06355707, NaN, NaN, NaN, 0.0299091, "- N/A -   "
38.17, 1585.29, 0.063757, NaN, NaN, NaN, 0.03112983, "- N/A -   "
38.29, 1590.06, 0.0639292, NaN, NaN, NaN, 0.04211683, "- N/A -   "
38.41, 1595.55, 0.0641263, NaN, NaN, NaN, 0.0433376, "- N/A -   "
38.53, 1601.15, 0.0643262, NaN, NaN, NaN, 0.0433376, "- N/A -   "
38.65, 1607.71, 0.0645567, NaN, NaN, NaN, 0.0299091, "- N/A -   "
38.77, 1613.2, 0.06475663, NaN, NaN, NaN, 0.03112983, "- N/A -   "
38.89, 1618.323, 0.06494267, NaN, NaN, NaN, 0.03601294, "- N/A -   "
39.01, 1623.69, 0.06513704, NaN, NaN, NaN, 0.0384545, "- N/A -   "
39.13, 1628.94, 0.0653231, NaN, NaN, NaN, 0.0445584, "- N/A -   "
39.25, 1635.5, 0.06555355, NaN, NaN, NaN, 0.03112983, "- N/A -   "
39.37, 1640.86, 0.0657507, NaN, NaN, NaN, 0.0335714, "- N/A -   "
39.49, 1646.35, 0.06594785, NaN, NaN, NaN, 0.0335714, "- N/A -   "
39.61, 1651.952, 0.066145, NaN, NaN, NaN, 0.03601294, "- N/A -   "
39.73, 1656.84, 0.06633105, NaN, NaN, NaN, 0.04089605, "- N/A -   "
39.85, 1662.57, 0.06653375, NaN, NaN, NaN, 0.04089605, "- N/A -   "
39.97, 1668.29, 0.06673923, NaN, NaN, NaN, 0.0384545, "- N/A -   "
40.09, 1674.01, 0.06694749, NaN, NaN, NaN, 0.03601294, "- N/A -   "
40.21, 1679.62, 0.06715019, NaN, NaN, NaN, 0.0335714, "- N/A -   "
40.33, 1685.22, 0.06735289, NaN, NaN, NaN, 0.0335714, "- N/A -   "
40.45, 1690.23, 0.06753616, NaN, NaN, NaN, 0.0396753, "- N/A -   "
40.57, 1695.6, 0.06773053, NaN, NaN, NaN, 0.0433376, "- N/A -   "
40.69, 1701.92, 0.06795267, NaN, NaN, NaN, 0.0323506, "- N/A -   "
40.81, 1707.285, 0.0681526, NaN, NaN, NaN, 0.0323506, "- N/A -   "
40.93, 1713.13, 0.06836085, NaN, NaN, NaN, 0.0286883, "- N/A -   "
41.05, 1718.02, 0.06854134, NaN, NaN, NaN, 0.0372337, "- N/A -   "
41.17, 1722.79, 0.06871905, NaN, NaN, NaN, 0.04699994, "- N/A -   "
41.29, 1728.75, 0.06893564, NaN, NaN, NaN, 0.04089605, "- N/A -   "
41.41, 1734.59, 0.06914667, NaN, NaN, NaN, 0.03601294, "- N/A -   "
41.53, 1740.32, 0.06935771, NaN, NaN, NaN, 0.03112983, "- N/A -   "
41.65, 1745.92, 0.06956041, NaN, NaN, NaN, 0.0286883, "- N/A -   "
41.77, 1749.977, 0.06971869, NaN, NaN, NaN, 0.04699994, "- N/A -   "
41.89, 1755.46, 0.06992138, NaN, NaN, NaN, 0.04577916, "- N/A -   "
42.01, 1761.306, 0.07013242, NaN, NaN, NaN, 0.04211683, "- N/A -   "
42.13, 1767.98, 0.07036845, NaN, NaN, NaN, 0.0262467, "- N/A -   "
42.25, 1772.87, 0.07055171, NaN, NaN, NaN, 0.0323506, "- N/A -   "
42.37, 1778.12, 0.07074331, NaN, NaN, NaN, 0.03601294, "- N/A -   "
42.49, 1783.01, 0.0709238, NaN, NaN, NaN, 0.0445584, "- N/A -   "
42.61, 1788.734, 0.07113483, NaN, NaN, NaN, 0.0396753, "- N/A -   "
42.73, 1794.94, 0.07135697, NaN, NaN, NaN, 0.0299091, "- N/A -   "
42.85, 1799.71, 0.07153746, NaN, NaN, NaN, 0.0384545, "- N/A -   "
42.97, 1805.55, 0.0717485, NaN, NaN, NaN, 0.0347922, "- N/A -   "
43.09, 1810.91, 0.0719429, NaN, NaN, NaN, 0.03601294, "- N/A -   "
43.21, 1816.16, 0.07213446, NaN, NaN, NaN, 0.0396753, "- N/A -   "
43.33, 1821.89, 0.0723427, NaN, NaN, NaN, 0.03601294, "- N/A -   "
43.45, 1827.37, 0.07254542, NaN, NaN, NaN, 0.0347922, "- N/A -   "
43.57, 1833.1, 0.0727537, NaN, NaN, NaN, 0.0323506, "- N/A -   "
43.69, 1838.34, 0.072948, NaN, NaN, NaN, 0.0335714, "- N/A -   "
43.81, 1843.47, 0.0731369, NaN, NaN, NaN, 0.0384545, "- N/A -   "
43.93, 1848.48, 0.07332291, NaN, NaN, NaN, 0.0445584, "- N/A -   "
44.05, 1854.32, 0.07353394, NaN, NaN, NaN, 0.0396753, "- N/A -   "
44.17, 1860.166, 0.073745, NaN, NaN, NaN, 0.0347922, "- N/A -   "
44.29, 1865.89, 0.073956, NaN, NaN, NaN, 0.03112983, "- N/A -   "
44.364, 1869.47, 0.07408096, NaN, NaN, NaN, 0.0299091, "- N/A -   "