Folder: DigitalTwins-Machine-Learning/2_Tensile_Data (part 3)

File: Hamel_ForceTest_Bolt3_Test3.csv
Time, Load (lb), Position (in), AxialStrain (in), TransverseStrain (in), Auxiliary (), Control Out (V), Stress (psi)
0.0, 1.29742, 0.0, NaN, NaN, NaN, 0.09461027, "- N/A -   "
0.01, 1.65126, 3.054427E-5, NaN, NaN, NaN, 0.0897272, "- N/A -   "
0.02, 1.76921, 5.83118e-05, NaN, NaN, NaN, 0.08362327, "- N/A -   "
0.03, 2.12305, 8.607931E-5, NaN, NaN, NaN, 0.0799609, "- N/A -   "
0.04, 2.35895, 0.000113847, NaN, NaN, NaN, 0.0750778, "- N/A -   "
0.05, 2.712792, 0.000141614, NaN, NaN, NaN, 0.0701947, "- N/A -   "
0.06, 2.83074, 0.000166605, NaN, NaN, NaN, 0.0653116, "- N/A -   "
0.07, 3.06663, 0.000191596, NaN, NaN, NaN, 0.06287005, "- N/A -   "
0.08, 3.30253, 0.000216587, NaN, NaN, NaN, 0.0592077, "- N/A -   "
0.09, 3.53842, 0.000238801, NaN, NaN, NaN, 0.0555454, "- N/A -   "
0.1, 3.774319, 0.000263791, NaN, NaN, NaN, 0.05188305, "- N/A -   "
0.11, 4.010214, 0.000288782, NaN, NaN, NaN, 0.0494415, "- N/A -   "
0.12, 4.12816, 3.109962E-4, NaN, NaN, NaN, 0.04699994, "- N/A -   "
0.13, 4.482, 0.000330433, NaN, NaN, NaN, 0.0445584, "- N/A -   "
0.14, 4.59995, 0.000355424, NaN, NaN, NaN, 0.04211683, "- N/A -   "
0.15, 4.83585, 3.748615E-4, NaN, NaN, NaN, 0.0396753, "- N/A -   "
0.16, 4.953794, 0.000397076, NaN, NaN, NaN, 0.0372337, "- N/A -   "
0.17, 5.18969, 0.000416513, NaN, NaN, NaN, 0.03601294, "- N/A -   "
0.18, 5.307636, 0.00043595, NaN, NaN, NaN, 0.0347922, "- N/A -   "
0.19, 5.54353, 4.553873E-4, NaN, NaN, NaN, 0.0335714, "- N/A -   "
0.2, 5.66148, 4.720478E-4, NaN, NaN, NaN, 0.0335714, "- N/A -   "
0.21, 5.779426, 4.887083E-4, NaN, NaN, NaN, 0.0335714, "- N/A -   "
0.27, 6.84095, 0.000588671, NaN, NaN, NaN, 0.0347922, "- N/A -   "
0.33, 8.020428, 6.747507E-4, NaN, NaN, NaN, 0.0396753, "- N/A -   "
0.39, 8.964007, 0.000763607, NaN, NaN, NaN, 0.0445584, "- N/A -   "
0.45, 10.26143, 8.635698E-4, NaN, NaN, NaN, 0.0445584, "- N/A -   "
0.51, 11.6768, 0.000960756, NaN, NaN, NaN, 0.04577916, "- N/A -   "
0.57, 12.9742, 0.00106627, NaN, NaN, NaN, 0.0433376, "- N/A -   "
0.63, 14.5075, 0.001174566, NaN, NaN, NaN, 0.0396753, "- N/A -   "
0.69, 16.0409, 0.00129397, NaN, NaN, NaN, 0.03112983, "- N/A -   "
0.75, 17.5742, 0.001399483, NaN, NaN, NaN, 0.0299091, "- N/A -   "
0.81, 18.8716, 0.00149389, NaN, NaN, NaN, 0.0323506, "- N/A -   "
0.87, 20.287, 0.0015883, NaN, NaN, NaN, 0.0335714, "- N/A -   "
0.93, 21.7023, 0.00168549, NaN, NaN, NaN, 0.0347922, "- N/A -   "
0.99, 23.1177, 0.001779898, NaN, NaN, NaN, 0.0372337, "- N/A -   "
1.05, 24.4151, 0.00187431, NaN, NaN, NaN, 0.0396753, "- N/A -   "
1.11, 25.8305, 0.00196594, NaN, NaN, NaN, 0.0445584, "- N/A -   "
1.17, 27.2459, 0.00206313, NaN, NaN, NaN, 0.0445584, "- N/A -   "
1.23, 29.0151, 0.0021742, NaN, NaN, NaN, 0.0396753, "- N/A -   "
1.29, 30.9022, 0.00229082, NaN, NaN, NaN, 0.0335714, "- N/A -   "
1.35, 32.5535, 0.00239911, NaN, NaN, NaN, 0.0299091, "- N/A -   "
1.41, 33.9689, 0.002493523, NaN, NaN, NaN, 0.0323506, "- N/A -   "
1.47, 35.3842, 0.00258516, NaN, NaN, NaN, 0.03601294, "- N/A -   "
1.53, 37.0355, 0.00268234, NaN, NaN, NaN, 0.03601294, "- N/A -   "
1.59, 38.9227, 0.00279064, NaN, NaN, NaN, 0.0323506, "- N/A -   "
1.65, 40.456, 0.002887822, NaN, NaN, NaN, 0.0335714, "- N/A -   "
1.71, 41.8714, 0.00297668, NaN, NaN, NaN, 0.0384545, "- N/A -   "
1.77, 43.2867, 0.003065534, NaN, NaN, NaN, 0.0433376, "- N/A -   "
1.83, 45.17388, 0.00317383, NaN, NaN, NaN, 0.0396753, "- N/A -   "
1.89, 46.7072, 0.00327379, NaN, NaN, NaN, 0.04089605, "- N/A -   "
1.95, 48.3585, 0.00337375, NaN, NaN, NaN, 0.0396753, "- N/A -   "
2.01, 50.2456, 0.00348205, NaN, NaN, NaN, 0.03601294, "- N/A -   "
2.07, 51.7789, 0.00358479, NaN, NaN, NaN, 0.03601294, "- N/A -   "
2.13, 53.54815, 0.0036903, NaN, NaN, NaN, 0.0323506, "- N/A -   "
2.19, 55.0815, 0.00379027, NaN, NaN, NaN, 0.0323506, "- N/A -   "
2.25, 56.4968, 0.003884676, NaN, NaN, NaN, 0.0347922, "- N/A -   "
2.31, 58.1481, 0.00398742, NaN, NaN, NaN, 0.0335714, "- N/A -   "
2.37, 59.5635, 0.00409016, NaN, NaN, NaN, 0.0323506, "- N/A -   "
2.43, 60.8609, 0.00417901, NaN, NaN, NaN, 0.0372337, "- N/A -   "
2.49, 62.2763, 0.00427897, NaN, NaN, NaN, 0.0384545, "- N/A -   "
2.55, 63.45574, 0.004373384, NaN, NaN, NaN, 0.0396753, "- N/A -   "
2.61, 64.98906, 0.00447057, NaN, NaN, NaN, 0.04089605, "- N/A -   "
2.67, 66.52237, 0.004576087, NaN, NaN, NaN, 0.0384545, "- N/A -   "
2.73, 68.17364, 0.00468716, NaN, NaN, NaN, 0.0335714, "- N/A -   "
2.79, 69.589, 0.004789897, NaN, NaN, NaN, 0.0323506, "- N/A -   "
2.85, 70.88643, 0.004887083, NaN, NaN, NaN, 0.0335714, "- N/A -   "
2.91, 72.3018, 0.00498982, NaN, NaN, NaN, 0.0323506, "- N/A -   "
2.97, 73.83511, 0.005098117, NaN, NaN, NaN, 0.0286883, "- N/A -   "
3.03, 75.25049, 0.00519253, NaN, NaN, NaN, 0.0323506, "- N/A -   "
3.09, 76.5479, 0.005281382, NaN, NaN, NaN, 0.03601294, "- N/A -   "
3.15, 77.72738, 0.00536746, NaN, NaN, NaN, 0.04211683, "- N/A -   "
3.21, 79.0248, 0.005453541, NaN, NaN, NaN, 0.0482207, "- N/A -   "
3.27, 80.55813, 0.00556183, NaN, NaN, NaN, 0.0445584, "- N/A -   "
3.33, 82.32734, 0.00567568, NaN, NaN, NaN, 0.0384545, "- N/A -   "
3.39, 83.9786, 0.00578675, NaN, NaN, NaN, 0.0335714, "- N/A -   "
3.45, 85.51192, 0.00588949, NaN, NaN, NaN, 0.0323506, "- N/A -   "
3.51, 87.04523, 0.005997784, NaN, NaN, NaN, 0.0299091, "- N/A -   "
3.57, 88.4606, 0.00609497, NaN, NaN, NaN, 0.03112983, "- N/A -   "
3.63, 89.99392, 0.00619771, NaN, NaN, NaN, 0.0299091, "- N/A -   "
3.69, 91.2913, 0.00628934, NaN, NaN, NaN, 0.0335714, "- N/A -   "
3.75, 92.47082, 0.0063782, NaN, NaN, NaN, 0.0384545, "- N/A -   "
3.81, 93.65029, 0.00646428, NaN, NaN, NaN, 0.0445584, "- N/A -   "
3.87, 95.30156, 0.006567018, NaN, NaN, NaN, 0.0433376, "- N/A -   "
3.93, 96.83487, 0.00666698, NaN, NaN, NaN, 0.0433376, "- N/A -   "
3.99, 98.3682, 0.00676972, NaN, NaN, NaN, 0.04211683, "- N/A -   "
4.05, 100.137, 0.006883568, NaN, NaN, NaN, 0.03601294, "- N/A -   "
4.11, 101.907, 0.007000192, NaN, NaN, NaN, 0.0286883, "- N/A -   "
4.17, 103.204, 0.00709738, NaN, NaN, NaN, 0.0299091, "- N/A -   "
4.23, 104.855, 0.007194564, NaN, NaN, NaN, 0.03112983, "- N/A -   "
4.29, 106.153, 0.00729175, NaN, NaN, NaN, 0.0335714, "- N/A -   "
4.35, 107.568, 0.00738616, NaN, NaN, NaN, 0.03601294, "- N/A -   "
4.41, 108.983, 0.007480569, NaN, NaN, NaN, 0.0372337, "- N/A -   "
4.47, 110.399, 0.0075722, NaN, NaN, NaN, 0.04089605, "- N/A -   "
4.53, 111.696, 0.007663835, NaN, NaN, NaN, 0.0445584, "- N/A -   "
4.59, 113.348, 0.007761021, NaN, NaN, NaN, 0.04577916, "- N/A -   "
4.65, 115.117, 0.007869315, NaN, NaN, NaN, 0.04211683, "- N/A -   "
4.71, 116.886, 0.007985938, NaN, NaN, NaN, 0.0347922, "- N/A -   "
4.77, 118.655, 0.008094232, NaN, NaN, NaN, 0.03112983, "- N/A -   "
4.83, 119.953, 0.008188642, NaN, NaN, NaN, 0.0335714, "- N/A -   "
4.89, 121.486, 0.008288605, NaN, NaN, NaN, 0.0347922, "- N/A -   "
4.95, 123.137, 0.008391344, NaN, NaN, NaN, 0.0323506, "- N/A -   "
5.01, 124.67, 0.008494084, NaN, NaN, NaN, 0.03112983, "- N/A -   "
5.07, 126.086, 0.008588494, NaN, NaN, NaN, 0.0347922, "- N/A -   "
5.13, 127.501, 0.008680126, NaN, NaN, NaN, 0.0384545, "- N/A -   "
5.19, 128.917, 0.008768982, NaN, NaN, NaN, 0.04211683, "- N/A -   "
5.25, 130.568, 0.008874499, NaN, NaN, NaN, 0.0396753, "- N/A -   "
5.31, 132.219, 0.008974462, NaN, NaN, NaN, 0.0396753, "- N/A -   "
[...]
19.93, 623.0281, 0.0333516, NaN, NaN, NaN, 0.03601294, "- N/A -   "
20.05, 628.114, 0.0335626, NaN, NaN, NaN, 0.0299091, "- N/A -   "
20.17, 632.1357, 0.0337431, NaN, NaN, NaN, 0.0384545, "- N/A -   "
20.29, 636.5121, 0.0339264, NaN, NaN, NaN, 0.04577916, "- N/A -   "
20.41, 642.1895, 0.034154, NaN, NaN, NaN, 0.0347922, "- N/A -   "
20.53, 646.8025, 0.03435675, NaN, NaN, NaN, 0.0323506, "- N/A -   "
20.65, 652.007, 0.03457056, NaN, NaN, NaN, 0.0262467, "- N/A -   "
20.77, 656.1467, 0.03475105, NaN, NaN, NaN, 0.0347922, "- N/A -   "
20.89, 660.2865, 0.034926, NaN, NaN, NaN, 0.04577916, "- N/A -   "
21.01, 665.254, 0.0351315, NaN, NaN, NaN, 0.0445584, "- N/A -   "
21.13, 670.8135, 0.03535638, NaN, NaN, NaN, 0.0323506, "- N/A -   "
21.25, 675.7813, 0.0355646, NaN, NaN, NaN, 0.0299091, "- N/A -   "
21.37, 680.1577, 0.0357479, NaN, NaN, NaN, 0.03601294, "- N/A -   "
21.49, 685.007, 0.0359451, NaN, NaN, NaN, 0.0372337, "- N/A -   "
21.61, 689.3836, 0.0361311, NaN, NaN, NaN, 0.0445584, "- N/A -   "
21.73, 694.588, 0.03634213, NaN, NaN, NaN, 0.0396753, "- N/A -   "
21.85, 700.029, 0.036567, NaN, NaN, NaN, 0.0286883, "- N/A -   "
21.97, 704.4053, 0.03675031, NaN, NaN, NaN, 0.03601294, "- N/A -   "
22.09, 709.6096, 0.0369586, NaN, NaN, NaN, 0.0323506, "- N/A -   "
22.21, 713.7495, 0.0371391, NaN, NaN, NaN, 0.04211683, "- N/A -   "
22.33, 718.7173, 0.03734176, NaN, NaN, NaN, 0.0396753, "- N/A -   "
22.45, 723.803, 0.03754724, NaN, NaN, NaN, 0.0372337, "- N/A -   "
22.57, 728.653, 0.0377499, NaN, NaN, NaN, 0.03601294, "- N/A -   "
22.69, 733.5023, 0.0379499, NaN, NaN, NaN, 0.03601294, "- N/A -   "
22.81, 738.352, 0.0381526, NaN, NaN, NaN, 0.0347922, "- N/A -   "
22.93, 742.847, 0.0383386, NaN, NaN, NaN, 0.04089605, "- N/A -   "
23.05, 747.5778, 0.038533, NaN, NaN, NaN, 0.0433376, "- N/A -   "
23.17, 753.137, 0.0387579, NaN, NaN, NaN, 0.0323506, "- N/A -   "
23.29, 757.8682, 0.03895783, NaN, NaN, NaN, 0.0335714, "- N/A -   "
23.41, 763.309, 0.03917164, NaN, NaN, NaN, 0.0262467, "- N/A -   "
23.53, 767.6855, 0.03936046, NaN, NaN, NaN, 0.03112983, "- N/A -   "
23.65, 771.5888, 0.0395271, NaN, NaN, NaN, 0.04699994, "- N/A -   "
23.77, 776.5566, 0.03972699, NaN, NaN, NaN, 0.04699994, "- N/A -   "
23.89, 782.2341, 0.0399547, NaN, NaN, NaN, 0.0335714, "- N/A -   "
24.01, 787.3201, 0.0401657, NaN, NaN, NaN, 0.0286883, "- N/A -   "
24.13, 792.0514, 0.04036009, NaN, NaN, NaN, 0.03112983, "- N/A -   "
24.25, 796.309, 0.0405406, NaN, NaN, NaN, 0.04089605, "- N/A -   "
24.37, 801.0407, 0.0407377, NaN, NaN, NaN, 0.04211683, "- N/A -   "
24.49, 806.1268, 0.04094598, NaN, NaN, NaN, 0.0372337, "- N/A -   "
24.61, 811.686, 0.0411681, NaN, NaN, NaN, 0.0274675, "- N/A -   "
24.73, 816.299, 0.04135972, NaN, NaN, NaN, 0.0323506, "- N/A -   "
24.85, 821.1485, 0.04155687, NaN, NaN, NaN, 0.0323506, "- N/A -   "
24.97, 825.4066, 0.04173458, NaN, NaN, NaN, 0.04211683, "- N/A -   "
25.09, 830.02, 0.0419262, NaN, NaN, NaN, 0.04699994, "- N/A -   "
25.21, 835.8153, 0.04215387, NaN, NaN, NaN, 0.0335714, "- N/A -   "
25.33, 840.5465, 0.0423482, NaN, NaN, NaN, 0.03601294, "- N/A -   "
25.45, 845.5143, 0.0425537, NaN, NaN, NaN, 0.0335714, "- N/A -   "
25.57, 850.364, 0.0427509, NaN, NaN, NaN, 0.0347922, "- N/A -   "
25.69, 854.9768, 0.0429452, NaN, NaN, NaN, 0.0384545, "- N/A -   "
25.81, 860.4177, 0.0431563, NaN, NaN, NaN, 0.0323506, "- N/A -   "
25.93, 864.7941, 0.0433423, NaN, NaN, NaN, 0.0384545, "- N/A -   "
26.05, 869.9985, 0.0435506, NaN, NaN, NaN, 0.0347922, "- N/A -   "
26.17, 875.085, 0.0437588, NaN, NaN, NaN, 0.0323506, "- N/A -   "
26.205, 876.7405, 0.0438255, NaN, NaN, NaN, 0.0286883, "- N/A -   "

File: Hamel_ForceTest_Bolt3_Test4.csv
Time, Load (lb), Position (in), AxialStrain (in), TransverseStrain (in), Auxiliary (), Control Out (V), Stress (psi)
0.0, 1.06153, 0.0, NaN, NaN, NaN, 0.09338949, "- N/A -   "
0.01, 1.41537, 2.49908e-05, NaN, NaN, NaN, 0.100714, "- N/A -   "
0.02, 1.88716, 5.5535e-05, NaN, NaN, NaN, 0.105597, "- N/A -   "
0.03, 2.35895, 8.33026e-05, NaN, NaN, NaN, 0.100714, "- N/A -   "
0.04, 2.712792, 0.00011107, NaN, NaN, NaN, 0.095831, "- N/A -   "
0.05, 3.06663, 0.000136061, NaN, NaN, NaN, 0.09216871, "- N/A -   "
0.06, 3.53842, 1.554981E-4, NaN, NaN, NaN, 0.0897272, "- N/A -   "
0.07, 3.774319, 0.000180489, NaN, NaN, NaN, 0.08606482, "- N/A -   "
0.08, 4.12816, 0.000202703, NaN, NaN, NaN, 0.084844, "- N/A -   "
0.09, 4.482, 0.000224917, NaN, NaN, NaN, 0.08240249, "- N/A -   "
0.1, 4.953794, 2.471309E-4, NaN, NaN, NaN, 0.0799609, "- N/A -   "
0.11, 5.18969, 0.000266568, NaN, NaN, NaN, 0.07751938, "- N/A -   "
0.12, 5.66148, 0.000288782, NaN, NaN, NaN, 0.0750778, "- N/A -   "
0.13, 5.897373, 3.109962E-4, NaN, NaN, NaN, 0.07263627, "- N/A -   "
0.14, 6.251216, 0.000335987, NaN, NaN, NaN, 0.0689739, "- N/A -   "
0.15, 6.723006, 0.000358201, NaN, NaN, NaN, 0.06653238, "- N/A -   "
0.16, 7.07685, 3.859685E-4, NaN, NaN, NaN, 0.06287005, "- N/A -   "
0.17, 7.430691, 4.081825E-4, NaN, NaN, NaN, 0.0604285, "- N/A -   "
0.18, 7.90248, 0.000430397, NaN, NaN, NaN, 0.05676616, "- N/A -   "
0.19, 8.138375, 0.000449834, NaN, NaN, NaN, 0.0555454, "- N/A -   "
0.2, 8.610166, 0.000474825, NaN, NaN, NaN, 0.05188305, "- N/A -   "
0.21, 8.964007, 4.970386E-4, NaN, NaN, NaN, 0.0494415, "- N/A -   "
0.22, 9.435798, 0.000522029, NaN, NaN, NaN, 0.04699994, "- N/A -   "
0.23, 9.671693, 5.414666E-4, NaN, NaN, NaN, 0.0445584, "- N/A -   "
0.24, 10.0255, 5.636806E-4, NaN, NaN, NaN, 0.04211683, "- N/A -   "
0.25, 10.3794, 5.858946E-4, NaN, NaN, NaN, 0.04089605, "- N/A -   "
0.26, 10.73322, 6.053319E-4, NaN, NaN, NaN, 0.0396753, "- N/A -   "
0.27, 10.9691, 0.000624769, NaN, NaN, NaN, 0.0384545, "- N/A -   "
0.28, 11.323, 6.414297E-4, NaN, NaN, NaN, 0.0372337, "- N/A -   "
0.29, 11.6768, 0.00065809, NaN, NaN, NaN, 0.0372337, "- N/A -   "
0.3, 11.9127, 6.747507E-4, NaN, NaN, NaN, 0.0372337, "- N/A -   "
0.31, 12.14859, 6.914112E-4, NaN, NaN, NaN, 0.0372337, "- N/A -   "
0.32, 12.3845, 7.108485E-4, NaN, NaN, NaN, 0.0372337, "- N/A -   "
0.33, 12.7383, 7.27509E-4, NaN, NaN, NaN, 0.03601294, "- N/A -   "
0.34, 13.09217, 0.000744169, NaN, NaN, NaN, 0.03601294, "- N/A -   "
0.35, 13.3281, 0.000763607, NaN, NaN, NaN, 0.0347922, "- N/A -   "
0.36, 13.6819, 0.000780267, NaN, NaN, NaN, 0.0347922, "- N/A -   "
0.37, 13.9178, 7.997045E-4, NaN, NaN, NaN, 0.0347922, "- N/A -   "
0.38, 14.1537, 8.191418E-4, NaN, NaN, NaN, 0.0335714, "- N/A -   "
0.39, 14.5075, 8.358023E-4, NaN, NaN, NaN, 0.0323506, "- N/A -   "
0.4, 14.8614, 8.524628E-4, NaN, NaN, NaN, 0.0323506, "- N/A -   "
0.41, 15.0973, 0.0008719, NaN, NaN, NaN, 0.0323506, "- N/A -   "
0.47, 16.74854, 9.774166E-4, NaN, NaN, NaN, 0.0299091, "- N/A -   "
0.53, 18.2819, 0.00106627, NaN, NaN, NaN, 0.0335714, "- N/A -   "
0.59, 19.6972, 0.001152352, NaN, NaN, NaN, 0.0396753, "- N/A -   "
0.65, 20.99465, 0.00124398, NaN, NaN, NaN, 0.0433376, "- N/A -   "
0.71, 22.6459, 0.00134117, NaN, NaN, NaN, 0.0445584, "- N/A -   "
0.77, 24.1792, 0.00143836, NaN, NaN, NaN, 0.04577916, "- N/A -   "
0.83, 25.9484, 0.001543874, NaN, NaN, NaN, 0.0433376, "- N/A -   "
0.89, 27.8356, 0.001654944, NaN, NaN, NaN, 0.0384545, "- N/A -   "
0.95, 29.84071, 0.00177434, NaN, NaN, NaN, 0.03112983, "- N/A -   "
1.01, 31.492, 0.00187708, NaN, NaN, NaN, 0.0299091, "- N/A -   "
1.07, 33.02529, 0.00197149, NaN, NaN, NaN, 0.0323506, "- N/A -   "
1.13, 34.7945, 0.00206868, NaN, NaN, NaN, 0.0323506, "- N/A -   "
1.19, 36.44577, 0.00216309, NaN, NaN, NaN, 0.0347922, "- N/A -   "
1.25, 38.097, 0.00225472, NaN, NaN, NaN, 0.0384545, "- N/A -   "
1.31, 39.8662, 0.00235469, NaN, NaN, NaN, 0.0384545, "- N/A -   "
1.37, 41.16367, 0.00244354, NaN, NaN, NaN, 0.0433376, "- N/A -   "
1.43, 42.93288, 0.002537951, NaN, NaN, NaN, 0.04577916, "- N/A -   "
1.49, 44.93799, 0.00264624, NaN, NaN, NaN, 0.04211683, "- N/A -   "
1.55, 47.179, 0.00276564, NaN, NaN, NaN, 0.0335714, "- N/A -   "
1.61, 49.1841, 0.00287394, NaN, NaN, NaN, 0.0299091, "- N/A -   "
1.67, 50.9533, 0.0029739, NaN, NaN, NaN, 0.0299091, "- N/A -   "
1.73, 52.48662, 0.00306276, NaN, NaN, NaN, 0.0347922, "- N/A -   "
1.79, 54.2558, 0.00315994, NaN, NaN, NaN, 0.03601294, "- N/A -   "
1.85, 56.37889, 0.00327101, NaN, NaN, NaN, 0.0323506, "- N/A -   "
1.91, 58.1481, 0.0033682, NaN, NaN, NaN, 0.0323506, "- N/A -   "
1.97, 59.5635, 0.00345428, NaN, NaN, NaN, 0.0384545, "- N/A -   "
2.03, 61.2147, 0.00354869, NaN, NaN, NaN, 0.04211683, "- N/A -   "
2.09, 63.2198, 0.00365143, NaN, NaN, NaN, 0.0396753, "- N/A -   "
2.15, 64.98906, 0.00375139, NaN, NaN, NaN, 0.0396753, "- N/A -   "
2.21, 66.99416, 0.00385413, NaN, NaN, NaN, 0.0384545, "- N/A -   "
2.27, 68.7634, 0.00395687, NaN, NaN, NaN, 0.0372337, "- N/A -   "
2.33, 70.6505, 0.00405683, NaN, NaN, NaN, 0.0372337, "- N/A -   "
2.39, 72.5377, 0.004165128, NaN, NaN, NaN, 0.0335714, "- N/A -   "
2.45, 74.3069, 0.004265091, NaN, NaN, NaN, 0.0335714, "- N/A -   "
2.51, 76.19407, 0.00436783, NaN, NaN, NaN, 0.0323506, "- N/A -   "
2.57, 77.84533, 0.00446779, NaN, NaN, NaN, 0.0323506, "- N/A -   "
2.63, 79.73249, 0.004567757, NaN, NaN, NaN, 0.0323506, "- N/A -   "
2.69, 81.26581, 0.00466217, NaN, NaN, NaN, 0.0347922, "- N/A -   "
2.75, 82.79912, 0.004753799, NaN, NaN, NaN, 0.0384545, "- N/A -   "
2.81, 84.21449, 0.004845432, NaN, NaN, NaN, 0.0433376, "- N/A -   "
2.87, 85.9837, 0.004945395, NaN, NaN, NaN, 0.0433376, "- N/A -   "
2.93, 87.75292, 0.00505091, NaN, NaN, NaN, 0.04089605, "- N/A -   "
2.99, 89.6401, 0.005167535, NaN, NaN, NaN, 0.0323506, "- N/A -   "
3.05, 91.1734, 0.00527028, NaN, NaN, NaN, 0.03112983, "- N/A -   "
3.11, 92.70671, 0.00536746, NaN, NaN, NaN, 0.0335714, "- N/A -   "
3.17, 94.24, 0.00546742, NaN, NaN, NaN, 0.0323506, "- N/A -   "
3.23, 96.00924, 0.00557849, NaN, NaN, NaN, 0.0274675, "- N/A -   "
3.29, 97.4246, 0.0056729, NaN, NaN, NaN, 0.0299091, "- N/A -   "
3.35, 98.72203, 0.005756207, NaN, NaN, NaN, 0.0372337, "- N/A -   "
3.41, 100.019, 0.00584229, NaN, NaN, NaN, 0.0445584, "- N/A -   "
3.47, 101.435, 0.0059367, NaN, NaN, NaN, 0.04699994, "- N/A -   "
3.53, 103.086, 0.006042212, NaN, NaN, NaN, 0.04577916, "- N/A -   "
3.59, 104.973, 0.006156059, NaN, NaN, NaN, 0.0384545, "- N/A -   "
3.65, 106.625, 0.006261575, NaN, NaN, NaN, 0.0372337, "- N/A -   "
3.71, 108.158, 0.006358762, NaN, NaN, NaN, 0.0372337, "- N/A -   "
3.77, 110.045, 0.00647261, NaN, NaN, NaN, 0.03112983, "- N/A -   "
3.83, 111.696, 0.00657535, NaN, NaN, NaN, 0.0299091, "- N/A -   "
3.89, 113.348, 0.006678088, NaN, NaN, NaN, 0.0286883, "- N/A -   "
3.95, 114.527, 0.006766944, NaN, NaN, NaN, 0.0335714, "- N/A -   "
4.01, 116.06, 0.0068558, NaN, NaN, NaN, 0.0384545, "- N/A -   "
4.07, 117.358, 0.00694188, NaN, NaN, NaN, 0.0445584, "- N/A -   "
4.13, 119.127, 0.007047396, NaN, NaN, NaN, 0.0433376, "- N/A -   "
4.19, 120.542, 0.00714458, NaN, NaN, NaN, 0.0433376, "- N/A -   "
4.25, 122.312, 0.00724455, NaN, NaN, NaN, 0.0433376, "- N/A -   "
4.31, 124.199, 0.00735839, NaN, NaN, NaN, 0.0372337, "- N/A -   "
4.37, 126.204, 0.007477793, NaN, NaN, NaN, 0.0286883, "- N/A -   "
[...]
23.67, 813.4602, 0.0396437, NaN, NaN, NaN, 0.0299091, "- N/A -   "
23.73, 816.0624, 0.0397464, NaN, NaN, NaN, 0.0286883, "- N/A -   "
23.79, 818.191, 0.0398353, NaN, NaN, NaN, 0.0323506, "- N/A -   "
23.85, 820.084, 0.0399158, NaN, NaN, NaN, 0.04089605, "- N/A -   "
23.91, 822.331, 0.0400102, NaN, NaN, NaN, 0.0445584, "- N/A -   "
23.97, 824.8151, 0.04011018, NaN, NaN, NaN, 0.0433376, "- N/A -   "
24.03, 827.417, 0.0402185, NaN, NaN, NaN, 0.0396753, "- N/A -   "
24.09, 830.02, 0.0403212, NaN, NaN, NaN, 0.0384545, "- N/A -   "
24.15, 832.74, 0.0404267, NaN, NaN, NaN, 0.03601294, "- N/A -   "
24.21, 835.342, 0.0405322, NaN, NaN, NaN, 0.0335714, "- N/A -   "
24.27, 837.944, 0.04064054, NaN, NaN, NaN, 0.0299091, "- N/A -   "
24.33, 840.192, 0.04073495, NaN, NaN, NaN, 0.0323506, "- N/A -   "
24.39, 842.6756, 0.04083769, NaN, NaN, NaN, 0.03112983, "- N/A -   "
24.45, 844.9229, 0.04092932, NaN, NaN, NaN, 0.0347922, "- N/A -   "
24.51, 846.9337, 0.0410126, NaN, NaN, NaN, 0.04211683, "- N/A -   "
24.57, 849.4176, 0.0411126, NaN, NaN, NaN, 0.04211683, "- N/A -   "
24.63, 851.9015, 0.0412153, NaN, NaN, NaN, 0.04089605, "- N/A -   "
24.69, 854.504, 0.0413208, NaN, NaN, NaN, 0.0384545, "- N/A -   "
24.75, 856.9876, 0.0414208, NaN, NaN, NaN, 0.0384545, "- N/A -   "
24.81, 859.8263, 0.0415347, NaN, NaN, NaN, 0.0323506, "- N/A -   "
24.87, 862.31, 0.04164017, NaN, NaN, NaN, 0.0299091, "- N/A -   "
24.93, 864.7941, 0.04174013, NaN, NaN, NaN, 0.0299091, "- N/A -   "
24.99, 867.041, 0.0418345, NaN, NaN, NaN, 0.0335714, "- N/A -   "
25.05, 869.407, 0.0419262, NaN, NaN, NaN, 0.03601294, "- N/A -   "
25.11, 871.8909, 0.0420289, NaN, NaN, NaN, 0.03601294, "- N/A -   "
25.17, 874.3748, 0.0421289, NaN, NaN, NaN, 0.0347922, "- N/A -   "
25.23, 876.5039, 0.04221773, NaN, NaN, NaN, 0.0396753, "- N/A -   "
25.29, 878.633, 0.0423094, NaN, NaN, NaN, 0.0445584, "- N/A -   "
25.35, 881.3534, 0.0424121, NaN, NaN, NaN, 0.04211683, "- N/A -   "
25.41, 884.3104, 0.042526, NaN, NaN, NaN, 0.03601294, "- N/A -   "
25.47, 886.9126, 0.0426287, NaN, NaN, NaN, 0.0347922, "- N/A -   "
25.53, 889.5148, 0.042737, NaN, NaN, NaN, 0.0323506, "- N/A -   "
25.59, 891.644, 0.04282862, NaN, NaN, NaN, 0.0347922, "- N/A -   "
25.65, 893.8912, 0.0429203, NaN, NaN, NaN, 0.0384545, "- N/A -   "
25.71, 896.612, 0.04303132, NaN, NaN, NaN, 0.0347922, "- N/A -   "
25.77, 899.2138, 0.0431341, NaN, NaN, NaN, 0.0335714, "- N/A -   "
25.83, 901.579, 0.04323125, NaN, NaN, NaN, 0.0347922, "- N/A -   "
25.89, 903.472, 0.04331455, NaN, NaN, NaN, 0.04089605, "- N/A -   "
25.95, 906.074, 0.0434173, NaN, NaN, NaN, 0.04089605, "- N/A -   "
26.01, 908.558, 0.0435173, NaN, NaN, NaN, 0.04089605, "- N/A -   "
26.07, 911.2785, 0.04362277, NaN, NaN, NaN, 0.0372337, "- N/A -   "
26.13, 913.8807, 0.04372551, NaN, NaN, NaN, 0.03601294, "- N/A -   "
26.19, 916.483, 0.04383658, NaN, NaN, NaN, 0.0335714, "- N/A -   "
26.25, 918.9667, 0.0439338, NaN, NaN, NaN, 0.0335714, "- N/A -   "
26.31, 921.4506, 0.0440365, NaN, NaN, NaN, 0.0323506, "- N/A -   "
26.37, 924.0528, 0.04413647, NaN, NaN, NaN, 0.0323506, "- N/A -   "
26.43, 926.3001, 0.0442337, NaN, NaN, NaN, 0.0347922, "- N/A -   "
26.49, 928.5475, 0.04432529, NaN, NaN, NaN, 0.0384545, "- N/A -   "
26.55, 931.0314, 0.0444225, NaN, NaN, NaN, 0.0384545, "- N/A -   "
26.61, 933.397, 0.04452244, NaN, NaN, NaN, 0.0396753, "- N/A -   "
26.67, 935.644, 0.04461685, NaN, NaN, NaN, 0.04211683, "- N/A -   "
26.73, 938.128, 0.04471126, NaN, NaN, NaN, 0.0445584, "- N/A -   "
26.79, 940.6121, 0.044814, NaN, NaN, NaN, 0.0433376, "- N/A -   "
26.849, 943.2143, 0.0449195, NaN, NaN, NaN, 0.0384545, "- N/A -   "