Folder: DigitalTwins-Machine-Learning/2_Tensile_Data (part 34)

File: Hamel_ForceTest_Bolt9_Test1.csv
Time, Load (lb), Position (in), AxialStrain (in), TransverseStrain (in), Auxiliary (), Control Out (V), Stress (psi)
0.0,1.06153,0.0, NaN, NaN, NaN,0.09216871," ""- N/A -   """
0.00999999,1.17947,2.49908e-05, NaN, NaN, NaN,0.0897272," ""- N/A -   """
0.06,1.53332,0.0001388376, NaN, NaN, NaN,0.0762986," ""- N/A -   """
0.11,2.005107,0.0002471309, NaN, NaN, NaN,0.0653116," ""- N/A -   """
0.16,2.35895,0.000349871, NaN, NaN, NaN,0.0555454," ""- N/A -   """
0.21,2.83074,0.000449834, NaN, NaN, NaN,0.0482207," ""- N/A -   """
0.26,3.18458,0.0005553504, NaN, NaN, NaN,0.0384545," ""- N/A -   """
0.31,3.774319,0.000655313, NaN, NaN, NaN,0.03112983," ""- N/A -   """
0.36,4.246109,0.0007413927, NaN, NaN, NaN,0.03112983," ""- N/A -   """
0.41,4.83585,0.0008191418, NaN, NaN, NaN,0.0323506," ""- N/A -   """
0.46,5.425584,0.000899668, NaN, NaN, NaN,0.0335714," ""- N/A -   """
0.51,6.01532,0.0009801934, NaN, NaN, NaN,0.0347922," ""- N/A -   """
0.56,6.487111,0.00106072, NaN, NaN, NaN,0.03601294," ""- N/A -   """
0.61,7.07685,0.00113847, NaN, NaN, NaN,0.0384545," ""- N/A -   """
0.66,7.548638,0.00121344, NaN, NaN, NaN,0.04211683," ""- N/A -   """
0.71,8.138375,0.00128564, NaN, NaN, NaN,0.04699994," ""- N/A -   """
0.76,8.728113,0.00136616, NaN, NaN, NaN,0.0482207," ""- N/A -   """
0.81,9.435798,0.00145779, NaN, NaN, NaN,0.0445584," ""- N/A -   """
0.86,10.26143,0.00156053, NaN, NaN, NaN,0.03601294," ""- N/A -   """
0.91,10.9691,0.00165772, NaN, NaN, NaN,0.0299091," ""- N/A -   """
0.96,11.7947,0.00174658, NaN, NaN, NaN,0.0286883," ""- N/A -   """
1.01,12.5024,0.00182433, NaN, NaN, NaN,0.0299091," ""- N/A -   """
1.06,13.3281,0.00189652, NaN, NaN, NaN,0.0347922," ""- N/A -   """
1.11,14.1537,0.00197705, NaN, NaN, NaN,0.03601294," ""- N/A -   """
1.16,15.2152,0.00206868, NaN, NaN, NaN,0.0323506," ""- N/A -   """
1.21,16.1588,0.00215476, NaN, NaN, NaN,0.03112983," ""- N/A -   """
1.26,17.1024,0.00222973, NaN, NaN, NaN,0.0347922," ""- N/A -   """
1.31,17.928,0.00230193, NaN, NaN, NaN,0.04089605," ""- N/A -   """
1.36,18.9895,0.0023769, NaN, NaN, NaN,0.0433376," ""- N/A -   """
1.41,20.169,0.00246576, NaN, NaN, NaN,0.04089605," ""- N/A -   """
1.46,21.1126,0.002551835, NaN, NaN, NaN,0.04089605," ""- N/A -   """
1.51,22.528,0.00264069, NaN, NaN, NaN,0.0372337," ""- N/A -   """
1.56,23.5895,0.00272399, NaN, NaN, NaN,0.0372337," ""- N/A -   """
1.61,24.769,0.002807296, NaN, NaN, NaN,0.0372337," ""- N/A -   """
1.66,25.9484,0.0028906, NaN, NaN, NaN,0.0372337," ""- N/A -   """
1.71,27.2459,0.00297945, NaN, NaN, NaN,0.0347922," ""- N/A -   """
1.76,28.54329,0.003065534, NaN, NaN, NaN,0.0335714," ""- N/A -   """
1.81,29.6048,0.00314606, NaN, NaN, NaN,0.0347922," ""- N/A -   """
1.86,31.1381,0.003234916, NaN, NaN, NaN,0.0335714," ""- N/A -   """
1.91,32.1997,0.003312665, NaN, NaN, NaN,0.0347922," ""- N/A -   """
1.96,33.49708,0.00340152, NaN, NaN, NaN,0.0323506," ""- N/A -   """
2.01,34.9125,0.00347927, NaN, NaN, NaN,0.0347922," ""- N/A -   """
2.06,36.0919,0.00355424, NaN, NaN, NaN,0.0384545," ""- N/A -   """
2.11,37.15345,0.00362921, NaN, NaN, NaN,0.04211683," ""- N/A -   """
2.16,38.4509,0.00370696, NaN, NaN, NaN,0.0445584," ""- N/A -   """
2.21,39.8662,0.003793043, NaN, NaN, NaN,0.0445584," ""- N/A -   """
2.26,41.51751,0.003884676, NaN, NaN, NaN,0.0396753," ""- N/A -   """
2.31,43.2867,0.00398742, NaN, NaN, NaN,0.03112983," ""- N/A -   """
2.36,44.70209,0.00407072, NaN, NaN, NaN,0.03112983," ""- N/A -   """
2.41,45.8816,0.004148467, NaN, NaN, NaN,0.0335714," ""- N/A -   """
2.46,47.2969,0.00422899, NaN, NaN, NaN,0.0347922," ""- N/A -   """
2.51,48.9482,0.00432063, NaN, NaN, NaN,0.03112983," ""- N/A -   """
2.56,50.4815,0.004409482, NaN, NaN, NaN,0.0286883," ""- N/A -   """
2.61,51.7789,0.00449001, NaN, NaN, NaN,0.0299091," ""- N/A -   """
2.66,53.19431,0.0045622, NaN, NaN, NaN,0.0347922," ""- N/A -   """
2.71,54.3738,0.004631622, NaN, NaN, NaN,0.04089605," ""- N/A -   """
2.76,55.6712,0.004709371, NaN, NaN, NaN,0.0445584," ""- N/A -   """
2.81,57.08658,0.00478712, NaN, NaN, NaN,0.04577916," ""- N/A -   """
2.86,58.6199,0.004875976, NaN, NaN, NaN,0.0433376," ""- N/A -   """
2.91,60.5071,0.004975939, NaN, NaN, NaN,0.0372337," ""- N/A -   """
2.96,62.0404,0.00506202, NaN, NaN, NaN,0.0347922," ""- N/A -   """
3.01,63.5737,0.005145321, NaN, NaN, NaN,0.0347922," ""- N/A -   """
3.06,65.22495,0.005234177, NaN, NaN, NaN,0.0335714," ""- N/A -   """
3.11,66.87622,0.00532581, NaN, NaN, NaN,0.0286883," ""- N/A -   """
3.16,68.52748,0.00541189, NaN, NaN, NaN,0.0286883," ""- N/A -   """
3.21,69.94285,0.00549519, NaN, NaN, NaN,0.0274675," ""- N/A -   """
3.26,71.3582,0.00556739, NaN, NaN, NaN,0.0323506," ""- N/A -   """
3.31,72.77359,0.005639583, NaN, NaN, NaN,0.0372337," ""- N/A -   """
3.36,74.071,0.00571456, NaN, NaN, NaN,0.04089605," ""- N/A -   """
3.41,75.48638,0.00579508, NaN, NaN, NaN,0.04211683," ""- N/A -   """
3.46,77.25559,0.00588116, NaN, NaN, NaN,0.04089605," ""- N/A -   """
3.51,78.78891,0.005964463, NaN, NaN, NaN,0.04211683," ""- N/A -   """
3.56,80.32223,0.006042212, NaN, NaN, NaN,0.0445584," ""- N/A -   """
3.61,82.09144,0.006131068, NaN, NaN, NaN,0.04211683," ""- N/A -   """
3.66,84.09654,0.006233808, NaN, NaN, NaN,0.0347922," ""- N/A -   """
3.71,85.86576,0.006322664, NaN, NaN, NaN,0.0323506," ""- N/A -   """
3.76,87.63497,0.006408743, NaN, NaN, NaN,0.0299091," ""- N/A -   """
3.81,89.28623,0.006489269, NaN, NaN, NaN,0.03112983," ""- N/A -   """
3.86,90.70161,0.006561465, NaN, NaN, NaN,0.0372337," ""- N/A -   """
3.91,92.47082,0.00664477, NaN, NaN, NaN,0.0372337," ""- N/A -   """
3.96,94.35797,0.00673085, NaN, NaN, NaN,0.0347922," ""- N/A -   """
4.01,96.12719,0.006816926, NaN, NaN, NaN,0.0347922," ""- N/A -   """
4.06,97.54256,0.00688634, NaN, NaN, NaN,0.0396753," ""- N/A -   """
4.11,99.1938,0.00696132, NaN, NaN, NaN,0.0445584," ""- N/A -   """
4.16,100.963,0.00704184, NaN, NaN, NaN,0.0445584," ""- N/A -   """
4.21,102.85,0.00712792, NaN, NaN, NaN,0.0433376," ""- N/A -   """
4.26,105.091,0.00722789, NaN, NaN, NaN,0.03601294," ""- N/A -   """
4.31,107.214,0.007319518, NaN, NaN, NaN,0.0323506," ""- N/A -   """
4.36,108.983,0.0074056, NaN, NaN, NaN,0.03112983," ""- N/A -   """
4.41,110.753,0.00748335, NaN, NaN, NaN,0.0335714," ""- N/A -   """
4.46,112.404,0.0075611, NaN, NaN, NaN,0.03601294," ""- N/A -   """
4.51,114.173,0.0076444, NaN, NaN, NaN,0.03601294," ""- N/A -   """
4.56,116.178,0.00773325, NaN, NaN, NaN,0.0347922," ""- N/A -   """
4.61,118.183,0.007819333, NaN, NaN, NaN,0.0323506," ""- N/A -   """
4.66,119.717,0.00789431, NaN, NaN, NaN,0.03601294," ""- N/A -   """
4.71,121.604,0.007974831, NaN, NaN, NaN,0.0372337," ""- N/A -   """
4.76,123.137,0.008047027, NaN, NaN, NaN,0.04211683," ""- N/A -   """
4.81,125.142,0.008135883, NaN, NaN, NaN,0.0396753," ""- N/A -   """
4.86,127.029,0.008219185, NaN, NaN, NaN,0.04089605," ""- N/A -   """
4.91,128.799,0.008302488, NaN, NaN, NaN,0.0396753," ""- N/A -   """
4.96,130.804,0.008388568, NaN, NaN, NaN,0.0384545," ""- N/A -   """
5.01,132.6909,0.00847187, NaN, NaN, NaN,0.0384545," ""- N/A -   """
5.06,134.578,0.008557949, NaN, NaN, NaN,0.0372337," ""- N/A -   """
5.11,136.583,0.008649582, NaN, NaN, NaN,0.0347922," ""- N/A -   """
5.16,138.588,0.008741215, NaN, NaN, NaN,0.03112983," ""- N/A -   """
5.21,140.357,0.008818964, NaN, NaN, NaN,0.0323506," ""- N/A -   """
[...]
18.13,604.8128,0.0303443, NaN, NaN, NaN,0.0372337," ""- N/A -   """
18.24,609.544,0.03053594, NaN, NaN, NaN,0.0335714," ""- N/A -   """
18.35,613.566,0.0307081, NaN, NaN, NaN,0.0372337," ""- N/A -   """
18.46,617.942,0.030883, NaN, NaN, NaN,0.04089605," ""- N/A -   """
18.57,622.555,0.03107463, NaN, NaN, NaN,0.0384545," ""- N/A -   """
18.68,627.0496,0.0312607, NaN, NaN, NaN,0.0372337," ""- N/A -   """
18.79,632.0174,0.031455, NaN, NaN, NaN,0.03112983," ""- N/A -   """
18.9,636.5121,0.0316383, NaN, NaN, NaN,0.03112983," ""- N/A -   """
19.01,640.7702,0.0318188, NaN, NaN, NaN,0.0323506," ""- N/A -   """
19.12,644.673,0.03197985, NaN, NaN, NaN,0.04211683," ""- N/A -   """
19.23,648.9316,0.032152, NaN, NaN, NaN,0.04699994," ""- N/A -   """
19.34,654.1359,0.03235749, NaN, NaN, NaN,0.0372337," ""- N/A -   """
19.45,659.104,0.0325519, NaN, NaN, NaN,0.0323506," ""- N/A -   """
19.56,663.7167,0.0327407, NaN, NaN, NaN,0.0299091," ""- N/A -   """
19.67,668.093,0.03292117, NaN, NaN, NaN,0.03112983," ""- N/A -   """
19.78,671.76,0.03307667, NaN, NaN, NaN,0.0433376," ""- N/A -   """
19.89,676.1361,0.0332516, NaN, NaN, NaN,0.04699994," ""- N/A -   """
20,681.6953,0.0334626, NaN, NaN, NaN,0.0347922," ""- N/A -   """
20.11,686.4266,0.03365423, NaN, NaN, NaN,0.03112983," ""- N/A -   """
20.22,691.2761,0.0338486, NaN, NaN, NaN,0.0274675," ""- N/A -   """
20.33,695.416,0.034018, NaN, NaN, NaN,0.0323506," ""- N/A -   """
20.44,699.3192,0.03417626, NaN, NaN, NaN,0.0433376," ""- N/A -   """
20.55,703.9321,0.03435675, NaN, NaN, NaN,0.0445584," ""- N/A -   """
20.66,708.7817,0.0345483, NaN, NaN, NaN,0.04089605," ""- N/A -   """
20.77,714.1043,0.0347566, NaN, NaN, NaN,0.0299091," ""- N/A -   """
20.88,718.599,0.03493709, NaN, NaN, NaN,0.03112983," ""- N/A -   """
20.99,723.0936,0.03510925, NaN, NaN, NaN,0.03601294," ""- N/A -   """
21.1,727.5883,0.0352925, NaN, NaN, NaN,0.0372337," ""- N/A -   """
21.21,731.6099,0.0354563, NaN, NaN, NaN,0.0445584," ""- N/A -   """
21.32,737.051,0.0356618, NaN, NaN, NaN,0.03601294," ""- N/A -   """
21.43,742.0186,0.035859, NaN, NaN, NaN,0.0299091," ""- N/A -   """
21.54,746.2767,0.03603113, NaN, NaN, NaN,0.0347922," ""- N/A -   """
21.65,751.2445,0.03621995, NaN, NaN, NaN,0.0323506," ""- N/A -   """
21.76,755.5026,0.0363949, NaN, NaN, NaN,0.03601294," ""- N/A -   """
21.87,759.879,0.0365698, NaN, NaN, NaN,0.0396753," ""- N/A -   """
21.98,764.6102,0.03675031, NaN, NaN, NaN,0.04089605," ""- N/A -   """
22.09,769.578,0.03694191, NaN, NaN, NaN,0.0372337," ""- N/A -   """
22.2,774.191,0.03712795, NaN, NaN, NaN,0.03601294," ""- N/A -   """
22.31,778.804,0.03731399, NaN, NaN, NaN,0.03601294," ""- N/A -   """
22.42,783.6535,0.0375, NaN, NaN, NaN,0.0335714," ""- N/A -   """
22.53,787.675,0.0376694, NaN, NaN, NaN,0.0396753," ""- N/A -   """
22.64,792.288,0.0378444, NaN, NaN, NaN,0.0433376," ""- N/A -   """
22.75,797.6106,0.0380526, NaN, NaN, NaN,0.0323506," ""- N/A -   """
22.86,802.2236,0.0382331, NaN, NaN, NaN,0.0335714," ""- N/A -   """
22.97,806.8365,0.03841914, NaN, NaN, NaN,0.0323506," ""- N/A -   """
23.08,811.5677,0.0386024, NaN, NaN, NaN,0.0335714," ""- N/A -   """
23.19,815.5893,0.038769, NaN, NaN, NaN,0.04089605," ""- N/A -   """
23.3,820.2023,0.0389467, NaN, NaN, NaN,0.0433376," ""- N/A -   """
23.41,825.0517,0.03913554, NaN, NaN, NaN,0.0396753," ""- N/A -   """
23.52,830.1378,0.0393327, NaN, NaN, NaN,0.0335714," ""- N/A -   """
23.63,834.869,0.0395215, NaN, NaN, NaN,0.03112983," ""- N/A -   """
23.74,839.482,0.039702, NaN, NaN, NaN,0.0323506," ""- N/A -   """
23.791,841.2562,0.03977697, NaN, NaN, NaN,0.0372337," ""- N/A -   """

File: Hamel_ForceTest_Bolt9_Test2.csv
Time, Load (lb), Position (in), AxialStrain (in), TransverseStrain (in), Auxiliary (), Control Out (V), Stress (psi)
0.0, 1.06153, 0.0, NaN, NaN, NaN, 0.103156, "- N/A -   "
0.01, 1.53332, 3.3321e-05, NaN, NaN, NaN, 0.103156, "- N/A -   "
0.02, 1.88716, 6.6642e-05, NaN, NaN, NaN, 0.09461027, "- N/A -   "
0.03, 2.35895, 9.718631E-5, NaN, NaN, NaN, 0.08850638, "- N/A -   "
0.04, 2.712792, 0.000127731, NaN, NaN, NaN, 0.08362327, "- N/A -   "
0.05, 2.94869, 0.000152721, NaN, NaN, NaN, 0.07874016, "- N/A -   "
0.06, 3.30253, 0.000183266, NaN, NaN, NaN, 0.07263627, "- N/A -   "
0.07, 3.53842, 2.138099E-4, NaN, NaN, NaN, 0.06775316, "- N/A -   "
0.08, 3.89227, 0.000238801, NaN, NaN, NaN, 0.06287005, "- N/A -   "
0.09, 4.246109, 0.000266568, NaN, NaN, NaN, 0.0592077, "- N/A -   "
0.1, 4.59995, 0.000294336, NaN, NaN, NaN, 0.0543246, "- N/A -   "
0.11, 4.717899, 3.165497E-4, NaN, NaN, NaN, 0.05066227, "- N/A -   "
0.12, 5.071741, 0.000338764, NaN, NaN, NaN, 0.0482207, "- N/A -   "
0.13, 5.307636, 0.000360978, NaN, NaN, NaN, 0.04699994, "- N/A -   "
0.14, 5.425584, 3.80415E-4, NaN, NaN, NaN, 0.0445584, "- N/A -   "
0.15, 5.66148, 0.000402629, NaN, NaN, NaN, 0.04211683, "- N/A -   "
0.16, 6.01532, 0.000422066, NaN, NaN, NaN, 0.04089605, "- N/A -   "
0.17, 6.13327, 4.442803E-4, NaN, NaN, NaN, 0.0384545, "- N/A -   "
0.18, 6.369163, 4.609408E-4, NaN, NaN, NaN, 0.0384545, "- N/A -   "
0.19, 6.60506, 4.776013E-4, NaN, NaN, NaN, 0.0384545, "- N/A -   "
0.2, 6.84095, 4.970386E-4, NaN, NaN, NaN, 0.0384545, "- N/A -   "
0.21, 6.84095, 0.000510922, NaN, NaN, NaN, 0.0384545, "- N/A -   "
0.22, 7.07685, 0.000527583, NaN, NaN, NaN, 0.0384545, "- N/A -   "
0.23, 7.1948, 5.442434E-4, NaN, NaN, NaN, 0.0396753, "- N/A -   "
0.24, 7.430691, 5.553504E-4, NaN, NaN, NaN, 0.04089605, "- N/A -   "
0.25, 7.548638, 5.720109E-4, NaN, NaN, NaN, 0.04089605, "- N/A -   "
0.26, 7.666586, 5.858946E-4, NaN, NaN, NaN, 0.04211683, "- N/A -   "
0.27, 7.90248, 0.000602555, NaN, NaN, NaN, 0.04211683, "- N/A -   "
0.28, 8.138375, 0.000619216, NaN, NaN, NaN, 0.0433376, "- N/A -   "
0.29, 8.138375, 6.330994E-4, NaN, NaN, NaN, 0.0433376, "- N/A -   "
0.3, 8.37427, 6.497599E-4, NaN, NaN, NaN, 0.0433376, "- N/A -   "
0.31, 8.610166, 6.636437E-4, NaN, NaN, NaN, 0.0445584, "- N/A -   "
0.37, 9.553744, 7.6083E-4, NaN, NaN, NaN, 0.04577916, "- N/A -   "
0.43, 10.6153, 8.635698E-4, NaN, NaN, NaN, 0.04577916, "- N/A -   "
0.49, 11.7947, 9.635329E-4, NaN, NaN, NaN, 0.0445584, "- N/A -   "
0.55, 13.09217, 0.001074603, NaN, NaN, NaN, 0.04089605, "- N/A -   "
0.61, 14.3896, 0.00118845, NaN, NaN, NaN, 0.0335714, "- N/A -   "
0.67, 15.687, 0.001296743, NaN, NaN, NaN, 0.03112983, "- N/A -   "
0.73, 16.86649, 0.001399483, NaN, NaN, NaN, 0.0286883, "- N/A -   "
0.79, 18.16391, 0.00149112, NaN, NaN, NaN, 0.0323506, "- N/A -   "
0.85, 19.3434, 0.00158275, NaN, NaN, NaN, 0.0372337, "- N/A -   "
0.91, 20.6408, 0.00167993, NaN, NaN, NaN, 0.0372337, "- N/A -   "
0.97, 22.0562, 0.00178267, NaN, NaN, NaN, 0.0372337, "- N/A -   "
1.03, 23.2357, 0.00186875, NaN, NaN, NaN, 0.04211683, "- N/A -   "
1.09, 24.65102, 0.00196316, NaN, NaN, NaN, 0.0445584, "- N/A -   "
1.15, 26.18434, 0.00206868, NaN, NaN, NaN, 0.0433376, "- N/A -   "
1.21, 27.8356, 0.002182527, NaN, NaN, NaN, 0.03601294, "- N/A -   "
1.27, 29.3689, 0.0022936, NaN, NaN, NaN, 0.03112983, "- N/A -   "
1.33, 31.0202, 0.00239911, NaN, NaN, NaN, 0.0299091, "- N/A -   "
1.39, 32.3176, 0.00248797, NaN, NaN, NaN, 0.0335714, "- N/A -   "
1.45, 33.73298, 0.00258238, NaN, NaN, NaN, 0.03601294, "- N/A -   "
1.51, 35.2663, 0.0026879, NaN, NaN, NaN, 0.0335714, "- N/A -   "
1.57, 36.79961, 0.00278786, NaN, NaN, NaN, 0.0335714, "- N/A -   "
1.63, 38.215, 0.00287671, NaN, NaN, NaN, 0.0396753, "- N/A -   "
1.69, 39.7483, 0.00296835, NaN, NaN, NaN, 0.0433376, "- N/A -   "
1.75, 41.39956, 0.00307109, NaN, NaN, NaN, 0.04211683, "- N/A -   "
1.81, 43.1688, 0.00317383, NaN, NaN, NaN, 0.0396753, "- N/A -   "
1.87, 44.82, 0.00327379, NaN, NaN, NaN, 0.0396753, "- N/A -   "
1.93, 46.7072, 0.00338486, NaN, NaN, NaN, 0.0347922, "- N/A -   "
1.99, 48.2405, 0.003482047, NaN, NaN, NaN, 0.03601294, "- N/A -   "
2.05, 50.0097, 0.00357923, NaN, NaN, NaN, 0.0372337, "- N/A -   "
2.11, 51.89689, 0.00368753, NaN, NaN, NaN, 0.0335714, "- N/A -   "
2.17, 53.6661, 0.00379027, NaN, NaN, NaN, 0.0323506, "- N/A -   "
2.23, 55.0815, 0.00388468, NaN, NaN, NaN, 0.0347922, "- N/A -   "
2.29, 56.9686, 0.00398464, NaN, NaN, NaN, 0.0347922, "- N/A -   "
2.35, 58.6199, 0.004084602, NaN, NaN, NaN, 0.0347922, "- N/A -   "
2.41, 60.27116, 0.00417901, NaN, NaN, NaN, 0.0372337, "- N/A -   "
2.47, 62.0404, 0.00427342, NaN, NaN, NaN, 0.0396753, "- N/A -   "
2.53, 63.6916, 0.00436783, NaN, NaN, NaN, 0.0433376, "- N/A -   "
2.59, 65.4608, 0.00447057, NaN, NaN, NaN, 0.04211683, "- N/A -   "
2.65, 67.70185, 0.004584417, NaN, NaN, NaN, 0.0347922, "- N/A -   "
2.71, 69.47106, 0.00468993, NaN, NaN, NaN, 0.0335714, "- N/A -   "
2.77, 71.24027, 0.00478712, NaN, NaN, NaN, 0.0335714, "- N/A -   "
2.83, 73.00948, 0.00489264, NaN, NaN, NaN, 0.0323506, "- N/A -   "
2.89, 75.13254, 0.004998153, NaN, NaN, NaN, 0.0286883, "- N/A -   "
2.95, 76.7838, 0.00509534, NaN, NaN, NaN, 0.0299091, "- N/A -   "
3.01, 78.31712, 0.0051842, NaN, NaN, NaN, 0.03601294, "- N/A -   "
3.07, 79.85043, 0.005270275, NaN, NaN, NaN, 0.04089605, "- N/A -   "
3.13, 81.5017, 0.005359131, NaN, NaN, NaN, 0.04577916, "- N/A -   "
3.19, 83.50681, 0.005459094, NaN, NaN, NaN, 0.04577916, "- N/A -   "
3.25, 85.62987, 0.005570164, NaN, NaN, NaN, 0.04089605, "- N/A -   "
3.31, 87.63497, 0.00567846, NaN, NaN, NaN, 0.0372337, "- N/A -   "
3.37, 89.758, 0.00578953, NaN, NaN, NaN, 0.0323506, "- N/A -   "
3.43, 91.52724, 0.005886714, NaN, NaN, NaN, 0.0335714, "- N/A -   "
3.49, 93.65029, 0.005997784, NaN, NaN, NaN, 0.0286883, "- N/A -   "
3.55, 95.5374, 0.0061033, NaN, NaN, NaN, 0.0274675, "- N/A -   "
3.61, 97.18872, 0.006192156, NaN, NaN, NaN, 0.0323506, "- N/A -   "
3.67, 98.9579, 0.006281012, NaN, NaN, NaN, 0.0372337, "- N/A -   "
3.73, 100.491, 0.00636987, NaN, NaN, NaN, 0.0433376, "- N/A -   "
3.79, 102.496, 0.006467055, NaN, NaN, NaN, 0.0433376, "- N/A -   "
3.85, 104.384, 0.006567018, NaN, NaN, NaN, 0.0445584, "- N/A -   "
3.91, 106.271, 0.00666143, NaN, NaN, NaN, 0.04577916, "- N/A -   "
3.97, 108.512, 0.00676972, NaN, NaN, NaN, 0.04211683, "- N/A -   "
4.03, 110.989, 0.00689467, NaN, NaN, NaN, 0.03112983, "- N/A -   "
4.09, 112.876, 0.00699464, NaN, NaN, NaN, 0.03112983, "- N/A -   "
4.15, 114.999, 0.00710293, NaN, NaN, NaN, 0.0286883, "- N/A -   "
4.21, 116.65, 0.00718901, NaN, NaN, NaN, 0.0335714, "- N/A -   "
4.27, 118.537, 0.0072862, NaN, NaN, NaN, 0.0347922, "- N/A -   "
4.33, 120.424, 0.00738616, NaN, NaN, NaN, 0.0347922, "- N/A -   "
4.39, 122.312, 0.00748057, NaN, NaN, NaN, 0.0372337, "- N/A -   "
4.45, 123.845, 0.007563872, NaN, NaN, NaN, 0.0445584, "- N/A -   "
4.51, 125.614, 0.007658282, NaN, NaN, NaN, 0.0482207, "- N/A -   "
4.57, 127.737, 0.007763798, NaN, NaN, NaN, 0.04577916, "- N/A -   "
4.63, 130.096, 0.007880422, NaN, NaN, NaN, 0.0372337, "- N/A -   "
4.69, 132.219, 0.007994268, NaN, NaN, NaN, 0.0323506, "- N/A -   "
4.75, 134.106, 0.008094232, NaN, NaN, NaN, 0.03112983, "- N/A -   "
4.81, 135.758, 0.008183087, NaN, NaN, NaN, 0.03601294, "- N/A -   "
[...]
21.21, 758.5779, 0.03552576, NaN, NaN, NaN, 0.0323506, "- N/A -   "
21.34, 764.0188, 0.03572847, NaN, NaN, NaN, 0.0372337, "- N/A -   "
21.47, 769.578, 0.0359395, NaN, NaN, NaN, 0.0396753, "- N/A -   "
21.6, 774.901, 0.03614498, NaN, NaN, NaN, 0.0445584, "- N/A -   "
21.73, 781.4061, 0.0363893, NaN, NaN, NaN, 0.0335714, "- N/A -   "
21.86, 786.965, 0.03660314, NaN, NaN, NaN, 0.0347922, "- N/A -   "
21.99, 792.9976, 0.03683084, NaN, NaN, NaN, 0.03112983, "- N/A -   "
22.12, 797.9654, 0.03702521, NaN, NaN, NaN, 0.0396753, "- N/A -   "
22.25, 803.6429, 0.03723902, NaN, NaN, NaN, 0.04211683, "- N/A -   "
22.38, 809.557, 0.03746116, NaN, NaN, NaN, 0.0384545, "- N/A -   "
22.51, 815.234, 0.0376777, NaN, NaN, NaN, 0.0384545, "- N/A -   "
22.64, 821.0302, 0.0378999, NaN, NaN, NaN, 0.03601294, "- N/A -   "
22.77, 827.0625, 0.0381276, NaN, NaN, NaN, 0.03112983, "- N/A -   "
22.9, 832.149, 0.03832473, NaN, NaN, NaN, 0.0396753, "- N/A -   "
23.03, 837.5895, 0.03853576, NaN, NaN, NaN, 0.0433376, "- N/A -   "
23.16, 844.095, 0.03877456, NaN, NaN, NaN, 0.0323506, "- N/A -   "
23.29, 849.891, 0.0389967, NaN, NaN, NaN, 0.0299091, "- N/A -   "
23.42, 855.5682, 0.0392161, NaN, NaN, NaN, 0.0286883, "- N/A -   "
23.55, 860.4177, 0.03940488, NaN, NaN, NaN, 0.04211683, "- N/A -   "
23.68, 865.9769, 0.0396131, NaN, NaN, NaN, 0.0445584, "- N/A -   "
23.81, 872.246, 0.03984639, NaN, NaN, NaN, 0.0372337, "- N/A -   "
23.94, 878.3964, 0.04007686, NaN, NaN, NaN, 0.03112983, "- N/A -   "
24.07, 884.074, 0.04029622, NaN, NaN, NaN, 0.0299091, "- N/A -   "
24.2, 888.9234, 0.04048782, NaN, NaN, NaN, 0.04089605, "- N/A -   "
24.33, 894.4826, 0.0406989, NaN, NaN, NaN, 0.0445584, "- N/A -   "
24.46, 900.8698, 0.0409349, NaN, NaN, NaN, 0.0347922, "- N/A -   "
24.59, 907.1387, 0.04116812, NaN, NaN, NaN, 0.0274675, "- N/A -   "
24.72, 912.225, 0.04136805, NaN, NaN, NaN, 0.0347922, "- N/A -   "
24.85, 917.784, 0.0415819, NaN, NaN, NaN, 0.0372337, "- N/A -   "
24.98, 922.9883, 0.0417818, NaN, NaN, NaN, 0.0433376, "- N/A -   "
25.11, 929.257, 0.0420123, NaN, NaN, NaN, 0.0372337, "- N/A -   "
25.24, 935.053, 0.0422344, NaN, NaN, NaN, 0.0347922, "- N/A -   "
25.37, 940.6121, 0.0424482, NaN, NaN, NaN, 0.0372337, "- N/A -   "
25.5, 946.5262, 0.0426703, NaN, NaN, NaN, 0.0335714, "- N/A -   "
25.63, 951.9671, 0.0428758, NaN, NaN, NaN, 0.0384545, "- N/A -   "
25.76, 957.645, 0.0430952, NaN, NaN, NaN, 0.0372337, "- N/A -   "
25.89, 963.677, 0.0433173, NaN, NaN, NaN, 0.0347922, "- N/A -   "
26.02, 969.591, 0.0435422, NaN, NaN, NaN, 0.0323506, "- N/A -   "
26.15, 975.15, 0.0437561, NaN, NaN, NaN, 0.0335714, "- N/A -   "
26.28, 980.3545, 0.043956, NaN, NaN, NaN, 0.04089605, "- N/A -   "
26.41, 985.6771, 0.04416146, NaN, NaN, NaN, 0.04699994, "- N/A -   "
26.54, 992.1826, 0.0443975, NaN, NaN, NaN, 0.0372337, "- N/A -   "
26.67, 998.0966, 0.0446196, NaN, NaN, NaN, 0.03601294, "- N/A -   "
26.8, 1004.01, 0.0448445, NaN, NaN, NaN, 0.03112983, "- N/A -   "
26.93, 1009.1, 0.0450417, NaN, NaN, NaN, 0.0396753, "- N/A -   "
27.06, 1014.31, 0.0452388, NaN, NaN, NaN, 0.0482207, "- N/A -   "
27.19, 1021.23, 0.0454887, NaN, NaN, NaN, 0.0335714, "- N/A -   "
27.32, 1027.191, 0.0457109, NaN, NaN, NaN, 0.03112983, "- N/A -   "
27.45, 1033.03, 0.0459358, NaN, NaN, NaN, 0.0286883, "- N/A -   "
27.58, 1037.92, 0.04612185, NaN, NaN, NaN, 0.04089605, "- N/A -   "
27.71, 1043.29, 0.0463245, NaN, NaN, NaN, 0.04699994, "- N/A -   "
27.84, 1049.37, 0.0465495, NaN, NaN, NaN, 0.0433376, "- N/A -   "
27.97, 1056.29, 0.0467994, NaN, NaN, NaN, 0.0286883, "- N/A -   "
28.023, 1058.55, 0.0468855, NaN, NaN, NaN, 0.0299091, "- N/A -   "