Folder: DigitalTwins-Machine-Learning/2_Tensile_Data (part 13)

File: Hamel_ForceTest_Bolt5_Test2.csv
Time, Load (lb), Position (in), AxialStrain (in), TransverseStrain (in), Auxiliary (), Control Out (V), Stress (psi)
0.0, 1.29742, 0.0, NaN, NaN, NaN, 0.09461027, "- N/A -   "
0.01, 1.76921, 3.054427E-5, NaN, NaN, NaN, 0.09461027, "- N/A -   "
0.02, 2.241, 6.6642e-05, NaN, NaN, NaN, 0.0872856, "- N/A -   "
0.03, 2.712792, 9.718631E-5, NaN, NaN, NaN, 0.08118171, "- N/A -   "
0.04, 3.06663, 0.000127731, NaN, NaN, NaN, 0.0750778, "- N/A -   "
0.05, 3.42048, 0.000152721, NaN, NaN, NaN, 0.0701947, "- N/A -   "
0.06, 3.774319, 0.000177712, NaN, NaN, NaN, 0.06653238, "- N/A -   "
0.07, 4.246109, 0.00020548, NaN, NaN, NaN, 0.06287005, "- N/A -   "
0.08, 4.482, 0.000227694, NaN, NaN, NaN, 0.0592077, "- N/A -   "
0.09, 4.717899, 0.000249908, NaN, NaN, NaN, 0.05676616, "- N/A -   "
0.1, 5.18969, 2.721217E-4, NaN, NaN, NaN, 0.0543246, "- N/A -   "
0.11, 5.425584, 0.000297112, NaN, NaN, NaN, 0.05188305, "- N/A -   "
0.12, 5.779426, 3.165497E-4, NaN, NaN, NaN, 0.0494415, "- N/A -   "
0.13, 6.01532, 0.000335987, NaN, NaN, NaN, 0.0482207, "- N/A -   "
0.14, 6.251216, 0.000355424, NaN, NaN, NaN, 0.0482207, "- N/A -   "
0.15, 6.369163, 3.69308E-4, NaN, NaN, NaN, 0.0482207, "- N/A -   "
0.16, 6.723006, 0.000388745, NaN, NaN, NaN, 0.0482207, "- N/A -   "
0.17, 6.84095, 0.000402629, NaN, NaN, NaN, 0.0482207, "- N/A -   "
0.18, 7.07685, 4.192895E-4, NaN, NaN, NaN, 0.0482207, "- N/A -   "
0.19, 7.312743, 0.00043595, NaN, NaN, NaN, 0.0494415, "- N/A -   "
0.2, 7.548638, 0.000449834, NaN, NaN, NaN, 0.0494415, "- N/A -   "
0.21, 7.666586, 4.664943E-4, NaN, NaN, NaN, 0.05066227, "- N/A -   "
0.22, 7.784533, 0.000480378, NaN, NaN, NaN, 0.05188305, "- N/A -   "
0.23, 8.020428, 4.942618E-4, NaN, NaN, NaN, 0.05188305, "- N/A -   "
0.24, 8.37427, 0.000510922, NaN, NaN, NaN, 0.05188305, "- N/A -   "
0.25, 8.610166, 0.00053036, NaN, NaN, NaN, 0.05066227, "- N/A -   "
0.26, 8.728113, 5.470201E-4, NaN, NaN, NaN, 0.05066227, "- N/A -   "
0.27, 9.081955, 5.664574E-4, NaN, NaN, NaN, 0.0494415, "- N/A -   "
0.28, 9.31785, 5.858946E-4, NaN, NaN, NaN, 0.0494415, "- N/A -   "
0.29, 9.553744, 0.000602555, NaN, NaN, NaN, 0.0482207, "- N/A -   "
0.3, 9.78964, 6.219924E-4, NaN, NaN, NaN, 0.0482207, "- N/A -   "
0.31, 10.1435, 0.000638653, NaN, NaN, NaN, 0.04699994, "- N/A -   "
0.32, 10.26143, 0.000655313, NaN, NaN, NaN, 0.0482207, "- N/A -   "
0.33, 10.4973, 6.719739E-4, NaN, NaN, NaN, 0.04699994, "- N/A -   "
0.34, 10.73322, 0.000688634, NaN, NaN, NaN, 0.04699994, "- N/A -   "
0.35, 10.9691, 0.000705295, NaN, NaN, NaN, 0.04699994, "- N/A -   "
0.36, 11.0871, 7.219555E-4, NaN, NaN, NaN, 0.04699994, "- N/A -   "
0.37, 11.4409, 7.413927E-4, NaN, NaN, NaN, 0.04577916, "- N/A -   "
0.38, 11.6768, 0.000758053, NaN, NaN, NaN, 0.04577916, "- N/A -   "
0.39, 11.9127, 7.774905E-4, NaN, NaN, NaN, 0.0445584, "- N/A -   "
0.4, 12.0306, 0.000794151, NaN, NaN, NaN, 0.0445584, "- N/A -   "
0.41, 12.3845, 8.108115E-4, NaN, NaN, NaN, 0.0445584, "- N/A -   "
0.42, 12.6204, 8.27472E-4, NaN, NaN, NaN, 0.0445584, "- N/A -   "
0.43, 12.7383, 8.469093E-4, NaN, NaN, NaN, 0.0433376, "- N/A -   "
0.44, 13.09217, 8.663466E-4, NaN, NaN, NaN, 0.0433376, "- N/A -   "
0.45, 13.2101, 8.830071E-4, NaN, NaN, NaN, 0.04211683, "- N/A -   "
0.46, 13.6819, 9.052211E-4, NaN, NaN, NaN, 0.04089605, "- N/A -   "
0.47, 13.7999, 9.246584E-4, NaN, NaN, NaN, 0.0384545, "- N/A -   "
0.48, 14.1537, 0.000946872, NaN, NaN, NaN, 0.0372337, "- N/A -   "
0.49, 14.3896, 9.635329E-4, NaN, NaN, NaN, 0.03601294, "- N/A -   "
0.5, 14.6255, 9.857469E-4, NaN, NaN, NaN, 0.0335714, "- N/A -   "
0.51, 14.8614, 0.00100518, NaN, NaN, NaN, 0.0335714, "- N/A -   "
0.56, 16.0409, 0.00109404, NaN, NaN, NaN, 0.0299091, "- N/A -   "
0.61, 17.1024, 0.001174566, NaN, NaN, NaN, 0.03112983, "- N/A -   "
0.66, 18.046, 0.00125232, NaN, NaN, NaN, 0.0335714, "- N/A -   "
0.71, 19.3434, 0.00133284, NaN, NaN, NaN, 0.0347922, "- N/A -   "
0.76, 20.287, 0.00141059, NaN, NaN, NaN, 0.0384545, "- N/A -   "
0.81, 21.3485, 0.00149112, NaN, NaN, NaN, 0.0384545, "- N/A -   "
0.86, 22.41, 0.00157442, NaN, NaN, NaN, 0.0384545, "- N/A -   "
0.91, 23.3536, 0.00164661, NaN, NaN, NaN, 0.0433376, "- N/A -   "
0.96, 24.4151, 0.00172992, NaN, NaN, NaN, 0.0433376, "- N/A -   "
1.01, 25.4767, 0.00181322, NaN, NaN, NaN, 0.0445584, "- N/A -   "
1.06, 26.7741, 0.00191041, NaN, NaN, NaN, 0.0372337, "- N/A -   "
1.11, 27.95355, 0.00200481, NaN, NaN, NaN, 0.0335714, "- N/A -   "
1.16, 29.133, 0.002093671, NaN, NaN, NaN, 0.0299091, "- N/A -   "
1.21, 30.1946, 0.00217697, NaN, NaN, NaN, 0.03112983, "- N/A -   "
1.26, 31.1381, 0.002249169, NaN, NaN, NaN, 0.0347922, "- N/A -   "
1.31, 32.1997, 0.00232969, NaN, NaN, NaN, 0.03601294, "- N/A -   "
1.36, 33.3791, 0.00241577, NaN, NaN, NaN, 0.0347922, "- N/A -   "
1.41, 34.55861, 0.00250741, NaN, NaN, NaN, 0.0323506, "- N/A -   "
1.46, 35.50219, 0.002585156, NaN, NaN, NaN, 0.0335714, "- N/A -   "
1.51, 36.44577, 0.00266568, NaN, NaN, NaN, 0.0347922, "- N/A -   "
1.56, 37.15345, 0.0027351, NaN, NaN, NaN, 0.04211683, "- N/A -   "
1.61, 38.215, 0.0028073, NaN, NaN, NaN, 0.04577916, "- N/A -   "
1.66, 39.2765, 0.002898929, NaN, NaN, NaN, 0.0433376, "- N/A -   "
1.71, 40.456, 0.002985008, NaN, NaN, NaN, 0.04089605, "- N/A -   "
1.76, 41.6355, 0.00307942, NaN, NaN, NaN, 0.0372337, "- N/A -   "
1.81, 42.8149, 0.00316272, NaN, NaN, NaN, 0.03601294, "- N/A -   "
1.86, 43.87646, 0.0032488, NaN, NaN, NaN, 0.0347922, "- N/A -   "
1.91, 44.93799, 0.00333488, NaN, NaN, NaN, 0.0335714, "- N/A -   "
1.96, 45.9995, 0.00342096, NaN, NaN, NaN, 0.0323506, "- N/A -   "
2.01, 47.061, 0.00350148, NaN, NaN, NaN, 0.0335714, "- N/A -   "
2.06, 48.12257, 0.00358201, NaN, NaN, NaN, 0.0347922, "- N/A -   "
2.11, 49.30204, 0.00366809, NaN, NaN, NaN, 0.0335714, "- N/A -   "
2.16, 50.3636, 0.00375139, NaN, NaN, NaN, 0.0347922, "- N/A -   "
2.21, 51.4251, 0.00383747, NaN, NaN, NaN, 0.0323506, "- N/A -   "
2.26, 52.25073, 0.00390967, NaN, NaN, NaN, 0.0384545, "- N/A -   "
2.31, 53.3123, 0.00398742, NaN, NaN, NaN, 0.0396753, "- N/A -   "
2.36, 54.4917, 0.00406794, NaN, NaN, NaN, 0.04089605, "- N/A -   "
2.41, 55.55326, 0.00414847, NaN, NaN, NaN, 0.04211683, "- N/A -   "
2.46, 56.73273, 0.004234547, NaN, NaN, NaN, 0.04211683, "- N/A -   "
2.51, 58.0302, 0.004328956, NaN, NaN, NaN, 0.0372337, "- N/A -   "
2.56, 59.3276, 0.004423366, NaN, NaN, NaN, 0.03112983, "- N/A -   "
2.61, 60.3891, 0.004503892, NaN, NaN, NaN, 0.0323506, "- N/A -   "
2.66, 61.3327, 0.004584417, NaN, NaN, NaN, 0.0335714, "- N/A -   "
2.71, 62.5122, 0.004670497, NaN, NaN, NaN, 0.0323506, "- N/A -   "
2.76, 63.6916, 0.00476213, NaN, NaN, NaN, 0.0286883, "- N/A -   "
2.81, 64.87111, 0.00484266, NaN, NaN, NaN, 0.0299091, "- N/A -   "
2.86, 65.81469, 0.0049204, NaN, NaN, NaN, 0.0335714, "- N/A -   "
2.91, 66.87622, 0.00500093, NaN, NaN, NaN, 0.0335714, "- N/A -   "
2.96, 67.5839, 0.005067572, NaN, NaN, NaN, 0.04211683, "- N/A -   "
3.01, 68.6454, 0.00513977, NaN, NaN, NaN, 0.04577916, "- N/A -   "
3.06, 69.707, 0.00522029, NaN, NaN, NaN, 0.04699994, "- N/A -   "
3.11, 71.12233, 0.00531748, NaN, NaN, NaN, 0.04211683, "- N/A -   "
3.16, 72.41975, 0.00541189, NaN, NaN, NaN, 0.03601294, "- N/A -   "
3.21, 73.59922, 0.00549797, NaN, NaN, NaN, 0.0347922, "- N/A -   "
3.26, 74.66075, 0.005581271, NaN, NaN, NaN, 0.0347922, "- N/A -   "
[...]
21.19, 731.255, 0.0354647, NaN, NaN, NaN, 0.0347922, "- N/A -   "
21.31, 736.2228, 0.0356563, NaN, NaN, NaN, 0.0384545, "- N/A -   "
21.43, 740.836, 0.03584509, NaN, NaN, NaN, 0.0445584, "- N/A -   "
21.55, 746.632, 0.0360645, NaN, NaN, NaN, 0.03601294, "- N/A -   "
21.67, 752.1908, 0.03628104, NaN, NaN, NaN, 0.0286883, "- N/A -   "
21.79, 756.6854, 0.0364643, NaN, NaN, NaN, 0.03601294, "- N/A -   "
21.91, 762.1263, 0.0366726, NaN, NaN, NaN, 0.0335714, "- N/A -   "
22.03, 766.621, 0.0368531, NaN, NaN, NaN, 0.04089605, "- N/A -   "
22.15, 771.7071, 0.037053, NaN, NaN, NaN, 0.04211683, "- N/A -   "
22.27, 777.148, 0.0372585, NaN, NaN, NaN, 0.0384545, "- N/A -   "
22.39, 782.471, 0.0374667, NaN, NaN, NaN, 0.0347922, "- N/A -   "
22.51, 787.5567, 0.03766664, NaN, NaN, NaN, 0.0347922, "- N/A -   "
22.63, 792.525, 0.0378666, NaN, NaN, NaN, 0.0347922, "- N/A -   "
22.75, 797.374, 0.03805816, NaN, NaN, NaN, 0.0384545, "- N/A -   "
22.87, 802.1053, 0.03824698, NaN, NaN, NaN, 0.0433376, "- N/A -   "
22.99, 807.7828, 0.0384663, NaN, NaN, NaN, 0.0347922, "- N/A -   "
23.11, 813.224, 0.03867738, NaN, NaN, NaN, 0.03112983, "- N/A -   "
23.23, 818.31, 0.0388801, NaN, NaN, NaN, 0.0286883, "- N/A -   "
23.35, 823.041, 0.0390689, NaN, NaN, NaN, 0.0335714, "- N/A -   "
23.47, 827.2991, 0.0392411, NaN, NaN, NaN, 0.04577916, "- N/A -   "
23.59, 832.6217, 0.0394493, NaN, NaN, NaN, 0.0433376, "- N/A -   "
23.71, 838.299, 0.0396687, NaN, NaN, NaN, 0.0335714, "- N/A -   "
23.83, 843.5036, 0.0398769, NaN, NaN, NaN, 0.0299091, "- N/A -   "
23.95, 848.4713, 0.0400741, NaN, NaN, NaN, 0.03112983, "- N/A -   "
24.07, 852.611, 0.0402462, NaN, NaN, NaN, 0.0433376, "- N/A -   "
24.19, 857.816, 0.0404462, NaN, NaN, NaN, 0.0433376, "- N/A -   "
24.31, 863.2565, 0.04066, NaN, NaN, NaN, 0.0384545, "- N/A -   "
24.43, 868.9339, 0.0408821, NaN, NaN, NaN, 0.0274675, "- N/A -   "
24.55, 873.902, 0.041082, NaN, NaN, NaN, 0.0274675, "- N/A -   "
24.67, 878.5147, 0.04126531, NaN, NaN, NaN, 0.0347922, "- N/A -   "
24.79, 882.8911, 0.04144302, NaN, NaN, NaN, 0.0445584, "- N/A -   "
24.91, 887.504, 0.04162629, NaN, NaN, NaN, 0.05188305, "- N/A -   "
25.03, 894.246, 0.0418734, NaN, NaN, NaN, 0.03112983, "- N/A -   "
25.15, 899.0956, 0.0420706, NaN, NaN, NaN, 0.0335714, "- N/A -   "
25.27, 904.063, 0.0422705, NaN, NaN, NaN, 0.0323506, "- N/A -   "
25.39, 908.9129, 0.0424593, NaN, NaN, NaN, 0.0372337, "- N/A -   "
25.51, 913.7623, 0.04265091, NaN, NaN, NaN, 0.04089605, "- N/A -   "
25.63, 919.085, 0.0428592, NaN, NaN, NaN, 0.0372337, "- N/A -   "
25.75, 924.1711, 0.0430646, NaN, NaN, NaN, 0.0347922, "- N/A -   "
25.87, 929.612, 0.0432757, NaN, NaN, NaN, 0.0299091, "- N/A -   "
25.99, 934.4615, 0.0434728, NaN, NaN, NaN, 0.03112983, "- N/A -   "
26.11, 939.4293, 0.0436644, NaN, NaN, NaN, 0.0347922, "- N/A -   "
26.23, 943.8057, 0.04384769, NaN, NaN, NaN, 0.0445584, "- N/A -   "
26.35, 948.8918, 0.0440421, NaN, NaN, NaN, 0.04577916, "- N/A -   "
26.47, 954.8058, 0.0442698, NaN, NaN, NaN, 0.0335714, "- N/A -   "
26.59, 959.8919, 0.04446968, NaN, NaN, NaN, 0.0335714, "- N/A -   "
26.71, 965.215, 0.0446779, NaN, NaN, NaN, 0.0299091, "- N/A -   "
26.83, 969.3544, 0.0448501, NaN, NaN, NaN, 0.04211683, "- N/A -   "
26.95, 974.2039, 0.0450417, NaN, NaN, NaN, 0.04577916, "- N/A -   "
27.07, 980, 0.04526106, NaN, NaN, NaN, 0.0372337, "- N/A -   "
27.19, 985.441, 0.04547487, NaN, NaN, NaN, 0.0323506, "- N/A -   "
27.31, 990.8815, 0.0456803, NaN, NaN, NaN, 0.0286883, "- N/A -   "
27.43, 995.2579, 0.0458636, NaN, NaN, NaN, 0.03601294, "- N/A -   "
27.452, 996.0858, 0.0458969, NaN, NaN, NaN, 0.0372337, "- N/A -   "

File: Hamel_ForceTest_Bolt5_Test3.csv
Time, Load (lb), Position (in), AxialStrain (in), TransverseStrain (in), Auxiliary (), Control Out (V), Stress (psi)
0.0, 1.06153, 0.0, NaN, NaN, NaN, 0.108039, "- N/A -   "
0.01, 1.41537, 3.3321e-05, NaN, NaN, NaN, 0.103156, "- N/A -   "
0.02, 1.65126, 6.6642e-05, NaN, NaN, NaN, 0.095831, "- N/A -   "
0.03, 1.88716, 9.718631E-5, NaN, NaN, NaN, 0.0897272, "- N/A -   "
0.04, 2.12305, 0.000124954, NaN, NaN, NaN, 0.084844, "- N/A -   "
0.05, 2.35895, 0.000152721, NaN, NaN, NaN, 0.07874016, "- N/A -   "
0.06, 2.59484, 0.000180489, NaN, NaN, NaN, 0.0750778, "- N/A -   "
0.07, 2.83074, 0.00020548, NaN, NaN, NaN, 0.0701947, "- N/A -   "
0.08, 2.94869, 2.304704E-4, NaN, NaN, NaN, 0.06775316, "- N/A -   "
0.09, 3.18458, 0.000255461, NaN, NaN, NaN, 0.06287005, "- N/A -   "
0.1, 3.30253, 0.000280452, NaN, NaN, NaN, 0.0604285, "- N/A -   "
0.11, 3.53842, 0.000302666, NaN, NaN, NaN, 0.0579869, "- N/A -   "
0.12, 3.65637, 3.221032E-4, NaN, NaN, NaN, 0.0555454, "- N/A -   "
0.13, 3.89227, 0.000344317, NaN, NaN, NaN, 0.0543246, "- N/A -   "
0.14, 4.010214, 0.000366531, NaN, NaN, NaN, 0.05188305, "- N/A -   "
0.15, 4.12816, 0.000388745, NaN, NaN, NaN, 0.0494415, "- N/A -   "
0.16, 4.36406, 0.000410959, NaN, NaN, NaN, 0.04577916, "- N/A -   "
0.17, 4.482, 4.331733E-4, NaN, NaN, NaN, 0.0433376, "- N/A -   "
0.18, 4.717899, 4.553873E-4, NaN, NaN, NaN, 0.04089605, "- N/A -   "
0.19, 4.83585, 4.776013E-4, NaN, NaN, NaN, 0.0384545, "- N/A -   "
0.2, 4.953794, 0.000499815, NaN, NaN, NaN, 0.03601294, "- N/A -   "
0.21, 5.18969, 5.192526E-4, NaN, NaN, NaN, 0.0347922, "- N/A -   "
0.22, 5.307636, 0.00053869, NaN, NaN, NaN, 0.0335714, "- N/A -   "
0.23, 5.307636, 5.553504E-4, NaN, NaN, NaN, 0.0335714, "- N/A -   "
0.24, 5.54353, 5.720109E-4, NaN, NaN, NaN, 0.0335714, "- N/A -   "
0.25, 5.66148, 0.000591448, NaN, NaN, NaN, 0.0323506, "- N/A -   "
0.26, 5.897373, 6.108854E-4, NaN, NaN, NaN, 0.0323506, "- N/A -   "
0.27, 5.897373, 0.000627546, NaN, NaN, NaN, 0.03112983, "- N/A -   "
0.28, 6.13327, 6.442064E-4, NaN, NaN, NaN, 0.03112983, "- N/A -   "
0.29, 6.13327, 6.608669E-4, NaN, NaN, NaN, 0.03112983, "- N/A -   "
0.3, 6.251216, 0.000677527, NaN, NaN, NaN, 0.03112983, "- N/A -   "
0.31, 6.487111, 0.000694188, NaN, NaN, NaN, 0.03112983, "- N/A -   "
0.32, 6.487111, 7.108485E-4, NaN, NaN, NaN, 0.03112983, "- N/A -   "
0.33, 6.723006, 0.000724732, NaN, NaN, NaN, 0.0323506, "- N/A -   "
0.34, 6.723006, 7.38616E-4, NaN, NaN, NaN, 0.0335714, "- N/A -   "
0.35, 6.84095, 0.0007525, NaN, NaN, NaN, 0.0347922, "- N/A -   "
0.36, 7.07685, 7.663835E-4, NaN, NaN, NaN, 0.03601294, "- N/A -   "
0.37, 7.07685, 0.000783044, NaN, NaN, NaN, 0.0372337, "- N/A -   "
0.38, 7.312743, 7.969278E-4, NaN, NaN, NaN, 0.0384545, "- N/A -   "
0.39, 7.430691, 8.108115E-4, NaN, NaN, NaN, 0.0384545, "- N/A -   "
0.4, 7.548638, 8.246953E-4, NaN, NaN, NaN, 0.0396753, "- N/A -   "
0.41, 7.666586, 8.38579E-4, NaN, NaN, NaN, 0.04089605, "- N/A -   "
0.42, 7.784533, 8.552396E-4, NaN, NaN, NaN, 0.04211683, "- N/A -   "
0.43, 7.784533, 8.691233E-4, NaN, NaN, NaN, 0.04211683, "- N/A -   "
0.44, 7.90248, 8.857838E-4, NaN, NaN, NaN, 0.04211683, "- N/A -   "
0.45, 8.138375, 0.000899668, NaN, NaN, NaN, 0.0433376, "- N/A -   "
0.46, 8.138375, 0.000913551, NaN, NaN, NaN, 0.0445584, "- N/A -   "
0.47, 8.256323, 0.000930212, NaN, NaN, NaN, 0.0445584, "- N/A -   "
0.48, 8.492218, 9.440956E-4, NaN, NaN, NaN, 0.04577916, "- N/A -   "
0.49, 8.610166, 0.000960756, NaN, NaN, NaN, 0.04577916, "- N/A -   "
0.5, 8.728113, 9.801934E-4, NaN, NaN, NaN, 0.0445584, "- N/A -   "
0.51, 8.964007, 9.968539E-4, NaN, NaN, NaN, 0.0445584, "- N/A -   "
0.52, 9.081955, 0.00101351, NaN, NaN, NaN, 0.0445584, "- N/A -   "
0.53, 9.31785, 0.00103295, NaN, NaN, NaN, 0.0433376, "- N/A -   "
0.54, 9.435798, 0.00104961, NaN, NaN, NaN, 0.0433376, "- N/A -   "
0.55, 9.553744, 0.00106627, NaN, NaN, NaN, 0.0445584, "- N/A -   "
0.56, 9.907588, 0.00108016, NaN, NaN, NaN, 0.0445584, "- N/A -   "
0.57, 10.0255, 0.001096817, NaN, NaN, NaN, 0.0445584, "- N/A -   "
0.58, 10.26143, 0.00111348, NaN, NaN, NaN, 0.04577916, "- N/A -   "
0.59, 10.4973, 0.001130138, NaN, NaN, NaN, 0.04577916, "- N/A -   "
0.6, 10.73322, 0.0011468, NaN, NaN, NaN, 0.0445584, "- N/A -   "
0.61, 10.8512, 0.001163459, NaN, NaN, NaN, 0.0445584, "- N/A -   "
0.62, 11.0871, 0.00118012, NaN, NaN, NaN, 0.0445584, "- N/A -   "
0.63, 11.323, 0.00119678, NaN, NaN, NaN, 0.0445584, "- N/A -   "
0.64, 11.4409, 0.00121344, NaN, NaN, NaN, 0.0445584, "- N/A -   "
0.65, 11.6768, 0.00123288, NaN, NaN, NaN, 0.0433376, "- N/A -   "
0.66, 11.9127, 0.00125232, NaN, NaN, NaN, 0.0433376, "- N/A -   "
0.67, 12.14859, 0.00126898, NaN, NaN, NaN, 0.04211683, "- N/A -   "
0.68, 12.3845, 0.00128841, NaN, NaN, NaN, 0.04211683, "- N/A -   "
0.69, 12.6204, 0.00130507, NaN, NaN, NaN, 0.04089605, "- N/A -   "
0.7, 12.9742, 0.00132451, NaN, NaN, NaN, 0.0396753, "- N/A -   "
0.71, 13.2101, 0.00134672, NaN, NaN, NaN, 0.0372337, "- N/A -   "
0.72, 13.564, 0.00136894, NaN, NaN, NaN, 0.03601294, "- N/A -   "
0.73, 13.7999, 0.00138838, NaN, NaN, NaN, 0.0335714, "- N/A -   "
0.74, 14.1537, 0.00141059, NaN, NaN, NaN, 0.03112983, "- N/A -   "
0.75, 14.3896, 0.00143003, NaN, NaN, NaN, 0.03112983, "- N/A -   "
0.76, 14.7434, 0.00144946, NaN, NaN, NaN, 0.0286883, "- N/A -   "
0.77, 14.9793, 0.0014689, NaN, NaN, NaN, 0.0286883, "- N/A -   "
0.78, 15.2152, 0.00148556, NaN, NaN, NaN, 0.0286883, "- N/A -   "
0.79, 15.4511, 0.00150222, NaN, NaN, NaN, 0.0274675, "- N/A -   "
0.8, 15.687, 0.00151888, NaN, NaN, NaN, 0.0274675, "- N/A -   "
0.81, 15.9229, 0.00153832, NaN, NaN, NaN, 0.0274675, "- N/A -   "
0.82, 16.1588, 0.0015522, NaN, NaN, NaN, 0.0274675, "- N/A -   "
0.83, 16.3947, 0.00156886, NaN, NaN, NaN, 0.0274675, "- N/A -   "
0.84, 16.6306, 0.00158553, NaN, NaN, NaN, 0.0274675, "- N/A -   "
0.85, 16.9844, 0.00160219, NaN, NaN, NaN, 0.0286883, "- N/A -   "
0.86, 17.1024, 0.00161607, NaN, NaN, NaN, 0.0286883, "- N/A -   "
0.87, 17.2203, 0.00162995, NaN, NaN, NaN, 0.03112983, "- N/A -   "
0.88, 17.4562, 0.00164106, NaN, NaN, NaN, 0.0323506, "- N/A -   "
0.89, 17.6921, 0.001654944, NaN, NaN, NaN, 0.0335714, "- N/A -   "
0.9, 17.928, 0.0016716, NaN, NaN, NaN, 0.0347922, "- N/A -   "
0.91, 18.16391, 0.00168549, NaN, NaN, NaN, 0.0347922, "- N/A -   "
0.92, 18.2819, 0.00169937, NaN, NaN, NaN, 0.03601294, "- N/A -   "
0.93, 18.6357, 0.00171603, NaN, NaN, NaN, 0.0372337, "- N/A -   "
0.94, 18.8716, 0.00172992, NaN, NaN, NaN, 0.0372337, "- N/A -   "
0.95, 19.1075, 0.00174658, NaN, NaN, NaN, 0.0384545, "- N/A -   "
0.96, 19.3434, 0.00176324, NaN, NaN, NaN, 0.0384545, "- N/A -   "
0.97, 19.57928, 0.001779898, NaN, NaN, NaN, 0.0372337, "- N/A -   "
0.98, 19.9331, 0.00179378, NaN, NaN, NaN, 0.0384545, "- N/A -   "
0.99, 20.05107, 0.00181044, NaN, NaN, NaN, 0.0384545, "- N/A -   "
1, 20.287, 0.0018271, NaN, NaN, NaN, 0.0384545, "- N/A -   "
1.01, 20.7588, 0.00184376, NaN, NaN, NaN, 0.0384545, "- N/A -   "
1.07, 22.29207, 0.00194928, NaN, NaN, NaN, 0.0372337, "- N/A -   "
1.13, 23.82539, 0.00204091, NaN, NaN, NaN, 0.0396753, "- N/A -   "
1.19, 25.2408, 0.00213532, NaN, NaN, NaN, 0.04211683, "- N/A -   "
1.25, 26.892, 0.00223251, NaN, NaN, NaN, 0.0433376, "- N/A -   "
1.31, 28.6612, 0.00234358, NaN, NaN, NaN, 0.0384545, "- N/A -   "
1.37, 30.5484, 0.00245465, NaN, NaN, NaN, 0.0335714, "- N/A -   "
[...]
22.81, 803.879, 0.0381803, NaN, NaN, NaN, 0.0372337, "- N/A -   "
22.91, 808.374, 0.0383525, NaN, NaN, NaN, 0.0347922, "- N/A -   "
23.01, 812.3957, 0.0385052, NaN, NaN, NaN, 0.04089605, "- N/A -   "
23.11, 816.6538, 0.03867182, NaN, NaN, NaN, 0.04089605, "- N/A -   "
23.21, 821.2667, 0.038844, NaN, NaN, NaN, 0.0384545, "- N/A -   "
23.31, 825.8797, 0.03902447, NaN, NaN, NaN, 0.0323506, "- N/A -   "
23.41, 830.1378, 0.0391883, NaN, NaN, NaN, 0.0335714, "- N/A -   "
23.51, 834.751, 0.03936601, NaN, NaN, NaN, 0.0286883, "- N/A -   "
23.61, 839.0089, 0.0395243, NaN, NaN, NaN, 0.0323506, "- N/A -   "
23.71, 842.321, 0.03966312, NaN, NaN, NaN, 0.04577916, "- N/A -   "
23.81, 846.579, 0.0398242, NaN, NaN, NaN, 0.0482207, "- N/A -   "
23.91, 851.7832, 0.0400185, NaN, NaN, NaN, 0.0347922, "- N/A -   "
24.01, 856.16, 0.0401907, NaN, NaN, NaN, 0.0335714, "- N/A -   "
24.11, 860.7725, 0.0403629, NaN, NaN, NaN, 0.0299091, "- N/A -   "
24.21, 864.9124, 0.0405239, NaN, NaN, NaN, 0.0323506, "- N/A -   "
24.31, 868.5791, 0.0406711, NaN, NaN, NaN, 0.04211683, "- N/A -   "
24.41, 872.719, 0.04083214, NaN, NaN, NaN, 0.0433376, "- N/A -   "
24.51, 877.3319, 0.04100985, NaN, NaN, NaN, 0.0396753, "- N/A -   "
24.61, 882.181, 0.0411903, NaN, NaN, NaN, 0.0323506, "- N/A -   "
24.71, 886.7943, 0.0413708, NaN, NaN, NaN, 0.0274675, "- N/A -   "
24.81, 890.8159, 0.04152355, NaN, NaN, NaN, 0.0323506, "- N/A -   "
24.91, 894.9557, 0.0416846, NaN, NaN, NaN, 0.0347922, "- N/A -   "
25.01, 899.0956, 0.04184565, NaN, NaN, NaN, 0.0372337, "- N/A -   "
25.11, 902.8805, 0.04199004, NaN, NaN, NaN, 0.04699994, "- N/A -   "
25.21, 907.73, 0.0421733, NaN, NaN, NaN, 0.0396753, "- N/A -   "
25.31, 912.6978, 0.0423594, NaN, NaN, NaN, 0.03112983, "- N/A -   "
25.41, 916.601, 0.04251485, NaN, NaN, NaN, 0.03601294, "- N/A -   "
25.51, 921.096, 0.042687, NaN, NaN, NaN, 0.0335714, "- N/A -   "
25.61, 925.472, 0.0428536, NaN, NaN, NaN, 0.0335714, "- N/A -   "
25.71, 929.139, 0.0430036, NaN, NaN, NaN, 0.04089605, "- N/A -   "
25.81, 933.752, 0.04317294, NaN, NaN, NaN, 0.04089605, "- N/A -   "
25.91, 938.6014, 0.0433534, NaN, NaN, NaN, 0.0347922, "- N/A -   "
26.01, 942.6229, 0.04351448, NaN, NaN, NaN, 0.03601294, "- N/A -   "
26.11, 947.3541, 0.0436922, NaN, NaN, NaN, 0.03112983, "- N/A -   "
26.21, 951.612, 0.043856, NaN, NaN, NaN, 0.0347922, "- N/A -   "
26.31, 955.989, 0.0440254, NaN, NaN, NaN, 0.0335714, "- N/A -   "
26.41, 960.1284, 0.04417812, NaN, NaN, NaN, 0.0384545, "- N/A -   "
26.51, 963.795, 0.0443281, NaN, NaN, NaN, 0.04577916, "- N/A -   "
26.61, 968.4081, 0.0445002, NaN, NaN, NaN, 0.0433376, "- N/A -   "
26.71, 973.3759, 0.04468627, NaN, NaN, NaN, 0.0347922, "- N/A -   "
26.81, 977.516, 0.0448501, NaN, NaN, NaN, 0.03601294, "- N/A -   "
26.91, 982.4836, 0.04503336, NaN, NaN, NaN, 0.0286883, "- N/A -   "
27.01, 986.3868, 0.04518886, NaN, NaN, NaN, 0.0335714, "- N/A -   "
27.11, 989.817, 0.04532492, NaN, NaN, NaN, 0.04699994, "- N/A -   "
27.21, 994.7848, 0.0455082, NaN, NaN, NaN, 0.0396753, "- N/A -   "
27.31, 999.3977, 0.0456831, NaN, NaN, NaN, 0.03601294, "- N/A -   "
27.41, 1003.54, 0.0458497, NaN, NaN, NaN, 0.0372337, "- N/A -   "
27.51, 1008.27, 0.0460274, NaN, NaN, NaN, 0.03112983, "- N/A -   "
27.61, 1012.76, 0.0461968, NaN, NaN, NaN, 0.03112983, "- N/A -   "
27.71, 1016.46, 0.046344, NaN, NaN, NaN, 0.0384545, "- N/A -   "
27.81, 1020.51, 0.0464995, NaN, NaN, NaN, 0.0433376, "- N/A -   "
27.91, 1024.93, 0.0466633, NaN, NaN, NaN, 0.0445584, "- N/A -   "
28.01, 1029.81, 0.04684936, NaN, NaN, NaN, 0.03601294, "- N/A -   "
28.023, 1030.53, 0.04687435, NaN, NaN, NaN, 0.0347922, "- N/A -   "