Folder: DigitalTwins-Machine-Learning/2_Tensile_Data (part 35)

File: Hamel_ForceTest_Bolt9_Test3.csv
Time, Load (lb), Position (in), AxialStrain (in), TransverseStrain (in), Auxiliary (), Control Out (V), Stress (psi)
0.0, 1.17947, 0.0, NaN, NaN, NaN, 0.108039, "- N/A -   "
0.01, 1.41537, 3.054427E-5, NaN, NaN, NaN, 0.101935, "- N/A -   "
0.02, 1.65126, 5.5535e-05, NaN, NaN, NaN, 0.09705182, "- N/A -   "
0.03, 1.88716, 8.607931E-5, NaN, NaN, NaN, 0.09216871, "- N/A -   "
0.04, 2.005107, 0.00011107, NaN, NaN, NaN, 0.0872856, "- N/A -   "
0.05, 2.12305, 1.388376E-4, NaN, NaN, NaN, 0.08362327, "- N/A -   "
0.06, 2.35895, 0.000166605, NaN, NaN, NaN, 0.07874016, "- N/A -   "
0.07, 2.476897, 0.000191596, NaN, NaN, NaN, 0.07385705, "- N/A -   "
0.08, 2.712792, 0.000216587, NaN, NaN, NaN, 0.0701947, "- N/A -   "
0.09, 2.83074, 2.415774E-4, NaN, NaN, NaN, 0.06653238, "- N/A -   "
0.1, 3.06663, 0.000263791, NaN, NaN, NaN, 0.0640908, "- N/A -   "
0.11, 3.18458, 0.000286005, NaN, NaN, NaN, 0.06164927, "- N/A -   "
0.12, 3.42048, 3.109962E-4, NaN, NaN, NaN, 0.0592077, "- N/A -   "
0.13, 3.53842, 0.00033321, NaN, NaN, NaN, 0.0555454, "- N/A -   "
0.14, 3.65637, 0.000355424, NaN, NaN, NaN, 0.0531038, "- N/A -   "
0.15, 3.89227, 0.000377638, NaN, NaN, NaN, 0.05066227, "- N/A -   "
0.16, 3.89227, 0.000399852, NaN, NaN, NaN, 0.0482207, "- N/A -   "
0.17, 4.12816, 0.000422066, NaN, NaN, NaN, 0.04577916, "- N/A -   "
0.18, 4.36406, 0.000441504, NaN, NaN, NaN, 0.0445584, "- N/A -   "
0.19, 4.36406, 4.609408E-4, NaN, NaN, NaN, 0.0433376, "- N/A -   "
0.2, 4.59995, 4.831548E-4, NaN, NaN, NaN, 0.04089605, "- N/A -   "
0.21, 4.59995, 0.000502592, NaN, NaN, NaN, 0.0396753, "- N/A -   "
0.22, 4.83585, 5.248061E-4, NaN, NaN, NaN, 0.0372337, "- N/A -   "
0.23, 4.953794, 5.442434E-4, NaN, NaN, NaN, 0.03601294, "- N/A -   "
0.24, 5.18969, 5.636806E-4, NaN, NaN, NaN, 0.0347922, "- N/A -   "
0.25, 5.307636, 5.831179E-4, NaN, NaN, NaN, 0.0335714, "- N/A -   "
0.26, 5.425584, 0.000602555, NaN, NaN, NaN, 0.0335714, "- N/A -   "
0.27, 5.54353, 0.000619216, NaN, NaN, NaN, 0.0323506, "- N/A -   "
0.28, 5.54353, 0.000638653, NaN, NaN, NaN, 0.03112983, "- N/A -   "
0.29, 5.779426, 0.000655313, NaN, NaN, NaN, 0.03112983, "- N/A -   "
0.3, 5.779426, 6.719739E-4, NaN, NaN, NaN, 0.03112983, "- N/A -   "
0.31, 6.01532, 0.000688634, NaN, NaN, NaN, 0.03112983, "- N/A -   "
0.32, 6.01532, 7.080717E-4, NaN, NaN, NaN, 0.03112983, "- N/A -   "
0.33, 6.13327, 0.000724732, NaN, NaN, NaN, 0.0299091, "- N/A -   "
0.34, 6.369163, 7.413927E-4, NaN, NaN, NaN, 0.0299091, "- N/A -   "
0.35, 6.369163, 0.000758053, NaN, NaN, NaN, 0.0299091, "- N/A -   "
0.36, 6.487111, 0.000774714, NaN, NaN, NaN, 0.03112983, "- N/A -   "
0.37, 6.60506, 7.885975E-4, NaN, NaN, NaN, 0.03112983, "- N/A -   "
0.38, 6.723006, 0.000802481, NaN, NaN, NaN, 0.0323506, "- N/A -   "
0.39, 6.84095, 8.191418E-4, NaN, NaN, NaN, 0.0323506, "- N/A -   "
0.4, 6.9589, 8.358023E-4, NaN, NaN, NaN, 0.0335714, "- N/A -   "
0.41, 7.07685, 0.000849686, NaN, NaN, NaN, 0.0335714, "- N/A -   "
0.42, 7.1948, 8.635698E-4, NaN, NaN, NaN, 0.0347922, "- N/A -   "
0.43, 7.312743, 0.00088023, NaN, NaN, NaN, 0.0347922, "- N/A -   "
0.48, 7.90248, 0.000957979, NaN, NaN, NaN, 0.0384545, "- N/A -   "
0.53, 8.492218, 0.0010274, NaN, NaN, NaN, 0.0433376, "- N/A -   "
0.58, 9.199903, 0.00110515, NaN, NaN, NaN, 0.04577916, "- N/A -   "
0.63, 9.907588, 0.00119123, NaN, NaN, NaN, 0.04577916, "- N/A -   "
0.68, 10.73322, 0.00126898, NaN, NaN, NaN, 0.04699994, "- N/A -   "
0.73, 11.6768, 0.00135783, NaN, NaN, NaN, 0.0445584, "- N/A -   "
0.78, 12.6204, 0.00145779, NaN, NaN, NaN, 0.0372337, "- N/A -   "
0.83, 13.6819, 0.00155776, NaN, NaN, NaN, 0.03112983, "- N/A -   "
0.88, 14.6255, 0.00164106, NaN, NaN, NaN, 0.0299091, "- N/A -   "
0.93, 15.687, 0.00172436, NaN, NaN, NaN, 0.0299091, "- N/A -   "
0.98, 16.5126, 0.001802112, NaN, NaN, NaN, 0.0323506, "- N/A -   "
1.03, 17.6921, 0.001879861, NaN, NaN, NaN, 0.0347922, "- N/A -   "
1.08, 18.7536, 0.00195483, NaN, NaN, NaN, 0.0384545, "- N/A -   "
1.13, 19.9331, 0.00204369, NaN, NaN, NaN, 0.03601294, "- N/A -   "
1.18, 21.2305, 0.00212422, NaN, NaN, NaN, 0.0372337, "- N/A -   "
1.23, 22.29207, 0.00219641, NaN, NaN, NaN, 0.04211683, "- N/A -   "
1.28, 23.3536, 0.00227694, NaN, NaN, NaN, 0.0445584, "- N/A -   "
1.33, 24.769, 0.00235746, NaN, NaN, NaN, 0.0445584, "- N/A -   "
1.38, 26.4202, 0.0024602, NaN, NaN, NaN, 0.03601294, "- N/A -   "
1.43, 27.7177, 0.00255183, NaN, NaN, NaN, 0.0323506, "- N/A -   "
1.48, 29.133, 0.002640691, NaN, NaN, NaN, 0.03112983, "- N/A -   "
1.53, 30.3125, 0.00272122, NaN, NaN, NaN, 0.03112983, "- N/A -   "
1.58, 31.6099, 0.002798966, NaN, NaN, NaN, 0.0335714, "- N/A -   "
1.63, 32.7894, 0.00287671, NaN, NaN, NaN, 0.03601294, "- N/A -   "
1.68, 34.08682, 0.00296002, NaN, NaN, NaN, 0.03601294, "- N/A -   "
1.73, 35.7381, 0.00305165, NaN, NaN, NaN, 0.0323506, "- N/A -   "
1.78, 36.9176, 0.00313218, NaN, NaN, NaN, 0.0347922, "- N/A -   "
1.83, 38.3329, 0.003209925, NaN, NaN, NaN, 0.03601294, "- N/A -   "
1.88, 39.5124, 0.0032849, NaN, NaN, NaN, 0.0396753, "- N/A -   "
1.93, 40.8098, 0.00336542, NaN, NaN, NaN, 0.04211683, "- N/A -   "
1.98, 42.3431, 0.0034515, NaN, NaN, NaN, 0.0396753, "- N/A -   "
2.03, 43.75851, 0.003537582, NaN, NaN, NaN, 0.0384545, "- N/A -   "
2.08, 45.29183, 0.00362366, NaN, NaN, NaN, 0.0372337, "- N/A -   "
2.13, 46.7072, 0.00370974, NaN, NaN, NaN, 0.03601294, "- N/A -   "
2.18, 48.12257, 0.00379304, NaN, NaN, NaN, 0.03601294, "- N/A -   "
2.23, 49.7738, 0.00387912, NaN, NaN, NaN, 0.0347922, "- N/A -   "
2.28, 51.4251, 0.00396798, NaN, NaN, NaN, 0.0323506, "- N/A -   "
2.33, 52.72252, 0.00405128, NaN, NaN, NaN, 0.0335714, "- N/A -   "
2.38, 54.13789, 0.00412903, NaN, NaN, NaN, 0.0347922, "- N/A -   "
2.43, 55.55326, 0.00421233, NaN, NaN, NaN, 0.03601294, "- N/A -   "
2.48, 57.08658, 0.004295635, NaN, NaN, NaN, 0.03601294, "- N/A -   "
2.53, 58.8558, 0.004381715, NaN, NaN, NaN, 0.0347922, "- N/A -   "
2.58, 60.15321, 0.004456687, NaN, NaN, NaN, 0.0372337, "- N/A -   "
2.63, 61.56858, 0.00453721, NaN, NaN, NaN, 0.0384545, "- N/A -   "
2.68, 62.98395, 0.004614962, NaN, NaN, NaN, 0.04089605, "- N/A -   "
2.73, 64.6352, 0.004698264, NaN, NaN, NaN, 0.04089605, "- N/A -   "
2.78, 66.40443, 0.00478712, NaN, NaN, NaN, 0.0384545, "- N/A -   "
2.83, 68.05569, 0.004878753, NaN, NaN, NaN, 0.0347922, "- N/A -   "
2.88, 69.707, 0.004967609, NaN, NaN, NaN, 0.0335714, "- N/A -   "
2.93, 71.3582, 0.005050912, NaN, NaN, NaN, 0.0323506, "- N/A -   "
2.98, 72.89154, 0.005134214, NaN, NaN, NaN, 0.0335714, "- N/A -   "
3.03, 74.42485, 0.00521752, NaN, NaN, NaN, 0.0323506, "- N/A -   "
3.08, 76.07612, 0.005303596, NaN, NaN, NaN, 0.03112983, "- N/A -   "
3.13, 77.72738, 0.00538968, NaN, NaN, NaN, 0.03112983, "- N/A -   "
3.18, 79.2607, 0.0054702, NaN, NaN, NaN, 0.03112983, "- N/A -   "
3.23, 80.55813, 0.00554517, NaN, NaN, NaN, 0.03601294, "- N/A -   "
3.28, 81.97349, 0.00561182, NaN, NaN, NaN, 0.04211683, "- N/A -   "
3.33, 83.38886, 0.00568401, NaN, NaN, NaN, 0.04699994, "- N/A -   "
3.38, 85.15807, 0.00577287, NaN, NaN, NaN, 0.04577916, "- N/A -   "
3.43, 86.92729, 0.0058645, NaN, NaN, NaN, 0.04089605, "- N/A -   "
3.48, 88.8144, 0.00596169, NaN, NaN, NaN, 0.03601294, "- N/A -   "
3.53, 90.4657, 0.00604777, NaN, NaN, NaN, 0.03601294, "- N/A -   "
3.58, 92.23492, 0.006131068, NaN, NaN, NaN, 0.0347922, "- N/A -   "
[...]
18.02, 607.77, 0.0302083, NaN, NaN, NaN, 0.0299091, "- N/A -   "
18.13, 612.2645, 0.03038322, NaN, NaN, NaN, 0.0335714, "- N/A -   "
18.24, 616.7592, 0.0305582, NaN, NaN, NaN, 0.0372337, "- N/A -   "
18.35, 621.0173, 0.030722, NaN, NaN, NaN, 0.04577916, "- N/A -   "
18.46, 626.103, 0.0309247, NaN, NaN, NaN, 0.0372337, "- N/A -   "
18.57, 631.071, 0.0311218, NaN, NaN, NaN, 0.03112983, "- N/A -   "
18.68, 635.211, 0.0312912, NaN, NaN, NaN, 0.0372337, "- N/A -   "
18.79, 640.2971, 0.0314884, NaN, NaN, NaN, 0.03112983, "- N/A -   "
18.9, 644.5552, 0.0316522, NaN, NaN, NaN, 0.0396753, "- N/A -   "
19.01, 649.05, 0.0318327, NaN, NaN, NaN, 0.04089605, "- N/A -   "
19.12, 653.781, 0.0320187, NaN, NaN, NaN, 0.0396753, "- N/A -   "
19.23, 658.5123, 0.0322075, NaN, NaN, NaN, 0.0372337, "- N/A -   "
19.34, 663.598, 0.0324047, NaN, NaN, NaN, 0.0323506, "- N/A -   "
19.45, 668.4479, 0.0325935, NaN, NaN, NaN, 0.0286883, "- N/A -   "
19.56, 672.706, 0.0327629, NaN, NaN, NaN, 0.0347922, "- N/A -   "
19.67, 677.0824, 0.0329351, NaN, NaN, NaN, 0.0396753, "- N/A -   "
19.78, 681.4588, 0.03310444, NaN, NaN, NaN, 0.04577916, "- N/A -   "
19.89, 686.9, 0.0333099, NaN, NaN, NaN, 0.03601294, "- N/A -   "
20, 691.6309, 0.0334987, NaN, NaN, NaN, 0.0347922, "- N/A -   "
20.11, 696.48, 0.03368478, NaN, NaN, NaN, 0.0323506, "- N/A -   "
20.22, 701.33, 0.03387082, NaN, NaN, NaN, 0.03112983, "- N/A -   "
20.33, 705.352, 0.03403187, NaN, NaN, NaN, 0.04089605, "- N/A -   "
20.44, 709.8462, 0.03420403, NaN, NaN, NaN, 0.04577916, "- N/A -   "
20.55, 715.051, 0.0344067, NaN, NaN, NaN, 0.0372337, "- N/A -   "
20.66, 720.2549, 0.03459833, NaN, NaN, NaN, 0.0335714, "- N/A -   "
20.77, 725.2227, 0.0347983, NaN, NaN, NaN, 0.0274675, "- N/A -   "
20.88, 729.481, 0.03496486, NaN, NaN, NaN, 0.0335714, "- N/A -   "
20.99, 733.6206, 0.0351287, NaN, NaN, NaN, 0.04211683, "- N/A -   "
21.1, 738.47, 0.0353092, NaN, NaN, NaN, 0.0433376, "- N/A -   "
21.21, 743.5562, 0.035498, NaN, NaN, NaN, 0.04089605, "- N/A -   "
21.32, 748.997, 0.03570903, NaN, NaN, NaN, 0.0286883, "- N/A -   "
21.43, 753.4918, 0.035884, NaN, NaN, NaN, 0.0323506, "- N/A -   "
21.54, 758.1048, 0.0360561, NaN, NaN, NaN, 0.0372337, "- N/A -   "
21.65, 762.836, 0.0362366, NaN, NaN, NaN, 0.0396753, "- N/A -   "
21.76, 767.2124, 0.03640877, NaN, NaN, NaN, 0.0445584, "- N/A -   "
21.87, 772.6533, 0.03661425, NaN, NaN, NaN, 0.03601294, "- N/A -   "
21.98, 777.6211, 0.0368058, NaN, NaN, NaN, 0.03112983, "- N/A -   "
22.09, 782.1158, 0.036978, NaN, NaN, NaN, 0.03601294, "- N/A -   "
22.2, 787.3201, 0.0371696, NaN, NaN, NaN, 0.0323506, "- N/A -   "
22.31, 791.6966, 0.03734176, NaN, NaN, NaN, 0.0384545, "- N/A -   "
22.42, 796.309, 0.03751947, NaN, NaN, NaN, 0.0396753, "- N/A -   "
22.53, 801.0407, 0.03770274, NaN, NaN, NaN, 0.0396753, "- N/A -   "
22.64, 805.89, 0.03788878, NaN, NaN, NaN, 0.0396753, "- N/A -   "
22.75, 811.0946, 0.0380832, NaN, NaN, NaN, 0.0335714, "- N/A -   "
22.86, 815.7076, 0.0382664, NaN, NaN, NaN, 0.0335714, "- N/A -   "
22.97, 820.557, 0.0384497, NaN, NaN, NaN, 0.0335714, "- N/A -   "
23.08, 824.8151, 0.03861629, NaN, NaN, NaN, 0.04089605, "- N/A -   "
23.19, 829.5464, 0.0387968, NaN, NaN, NaN, 0.04211683, "- N/A -   "
23.3, 834.9873, 0.0389967, NaN, NaN, NaN, 0.0347922, "- N/A -   "
23.41, 839.719, 0.03918552, NaN, NaN, NaN, 0.0323506, "- N/A -   "
23.52, 844.686, 0.0393743, NaN, NaN, NaN, 0.0299091, "- N/A -   "
23.63, 849.6542, 0.0395604, NaN, NaN, NaN, 0.0286883, "- N/A -   "
23.74, 853.321, 0.03971033, NaN, NaN, NaN, 0.0433376, "- N/A -   "
23.813, 856.3961, 0.0398242, NaN, NaN, NaN, 0.04699994, "- N/A -   "

File: Hamel_ForceTest_Bolt9_Test4.csv
Time, Load (lb), Position (in), AxialStrain (in), TransverseStrain (in), Auxiliary (), Control Out (V), Stress (psi)
0.0, 1.41537, 0.0, NaN, NaN, NaN, 0.101935, "- N/A -   "
0.01, 1.88716, 3.054427E-5, NaN, NaN, NaN, 0.104376, "- N/A -   "
0.02, 2.35895, 6.6642e-05, NaN, NaN, NaN, 0.09705182, "- N/A -   "
0.03, 2.83074, 9.718631E-5, NaN, NaN, NaN, 0.0897272, "- N/A -   "
0.04, 3.18458, 0.000130507, NaN, NaN, NaN, 0.08240249, "- N/A -   "
0.05, 3.65637, 1.610516E-4, NaN, NaN, NaN, 0.0762986, "- N/A -   "
0.06, 4.12816, 0.000194373, NaN, NaN, NaN, 0.0689739, "- N/A -   "
0.07, 4.482, 0.000224917, NaN, NaN, NaN, 0.0640908, "- N/A -   "
0.08, 4.83585, 0.000249908, NaN, NaN, NaN, 0.0592077, "- N/A -   "
0.09, 5.071741, 2.721217E-4, NaN, NaN, NaN, 0.05676616, "- N/A -   "
0.1, 5.425584, 0.000294336, NaN, NaN, NaN, 0.0555454, "- N/A -   "
0.11, 5.66148, 0.000313773, NaN, NaN, NaN, 0.0531038, "- N/A -   "
0.12, 5.897373, 0.000335987, NaN, NaN, NaN, 0.05066227, "- N/A -   "
0.13, 6.13327, 0.000358201, NaN, NaN, NaN, 0.0494415, "- N/A -   "
0.14, 6.369163, 3.748615E-4, NaN, NaN, NaN, 0.0482207, "- N/A -   "
0.15, 6.60506, 0.000391522, NaN, NaN, NaN, 0.0482207, "- N/A -   "
0.16, 6.84095, 4.081825E-4, NaN, NaN, NaN, 0.0482207, "- N/A -   "
0.17, 6.9589, 0.000424843, NaN, NaN, NaN, 0.0482207, "- N/A -   "
0.18, 7.1948, 0.000441504, NaN, NaN, NaN, 0.0494415, "- N/A -   "
0.19, 7.430691, 4.553873E-4, NaN, NaN, NaN, 0.05066227, "- N/A -   "
0.2, 7.548638, 0.000469271, NaN, NaN, NaN, 0.05066227, "- N/A -   "
0.21, 7.90248, 0.000485932, NaN, NaN, NaN, 0.05066227, "- N/A -   "
0.22, 8.020428, 0.000502592, NaN, NaN, NaN, 0.05066227, "- N/A -   "
0.23, 8.256323, 5.192526E-4, NaN, NaN, NaN, 0.05066227, "- N/A -   "
0.24, 8.37427, 5.359131E-4, NaN, NaN, NaN, 0.05066227, "- N/A -   "
0.25, 8.610166, 5.525736E-4, NaN, NaN, NaN, 0.05066227, "- N/A -   "
0.26, 8.846061, 0.000569234, NaN, NaN, NaN, 0.05188305, "- N/A -   "
0.27, 9.081955, 5.858946E-4, NaN, NaN, NaN, 0.05188305, "- N/A -   "
0.28, 9.31785, 0.000602555, NaN, NaN, NaN, 0.05188305, "- N/A -   "
0.29, 9.553744, 0.000619216, NaN, NaN, NaN, 0.05066227, "- N/A -   "
0.3, 9.78964, 0.000638653, NaN, NaN, NaN, 0.0494415, "- N/A -   "
0.31, 10.0255, 0.00065809, NaN, NaN, NaN, 0.0482207, "- N/A -   "
0.32, 10.26143, 6.747507E-4, NaN, NaN, NaN, 0.0482207, "- N/A -   "
0.33, 10.4973, 0.000694188, NaN, NaN, NaN, 0.04699994, "- N/A -   "
0.34, 10.73322, 7.136252E-4, NaN, NaN, NaN, 0.04577916, "- N/A -   "
0.35, 10.9691, 0.000733062, NaN, NaN, NaN, 0.0445584, "- N/A -   "
0.36, 11.323, 7.552765E-4, NaN, NaN, NaN, 0.0433376, "- N/A -   "
0.37, 11.5589, 0.000774714, NaN, NaN, NaN, 0.04089605, "- N/A -   "
0.38, 11.7947, 0.000791374, NaN, NaN, NaN, 0.04089605, "- N/A -   "
0.39, 11.9127, 8.108115E-4, NaN, NaN, NaN, 0.0396753, "- N/A -   "
0.4, 12.2665, 8.302488E-4, NaN, NaN, NaN, 0.0396753, "- N/A -   "
0.41, 12.5024, 8.469093E-4, NaN, NaN, NaN, 0.0384545, "- N/A -   "
0.53, 15.4511, 0.001063496, NaN, NaN, NaN, 0.03112983, "- N/A -   "
0.65, 18.16391, 0.00126898, NaN, NaN, NaN, 0.0286883, "- N/A -   "
0.77, 20.7588, 0.001455018, NaN, NaN, NaN, 0.0347922, "- N/A -   "
0.89, 23.4715, 0.00163551, NaN, NaN, NaN, 0.0445584, "- N/A -   "
1.01, 26.5382, 0.00183266, NaN, NaN, NaN, 0.0445584, "- N/A -   "
1.13, 30.1946, 0.00206868, NaN, NaN, NaN, 0.0299091, "- N/A -   "
1.25, 33.3791, 0.00226583, NaN, NaN, NaN, 0.0299091, "- N/A -   "
1.37, 36.5637, 0.00245187, NaN, NaN, NaN, 0.03601294, "- N/A -   "
1.49, 39.7483, 0.00264624, NaN, NaN, NaN, 0.0384545, "- N/A -   "
1.61, 43.0508, 0.00283229, NaN, NaN, NaN, 0.04577916, "- N/A -   "
1.73, 47.179, 0.00304887, NaN, NaN, NaN, 0.0372337, "- N/A -   "
1.85, 50.9533, 0.00326546, NaN, NaN, NaN, 0.0299091, "- N/A -   "
1.97, 54.6097, 0.00345428, NaN, NaN, NaN, 0.0347922, "- N/A -   "
2.09, 58.5019, 0.00365976, NaN, NaN, NaN, 0.0323506, "- N/A -   "
2.21, 62.0404, 0.00384025, NaN, NaN, NaN, 0.04089605, "- N/A -   "
2.33, 66.05058, 0.00404573, NaN, NaN, NaN, 0.0396753, "- N/A -   "
2.45, 70.29669, 0.00424565, NaN, NaN, NaN, 0.0384545, "- N/A -   "
2.57, 74.42485, 0.004456687, NaN, NaN, NaN, 0.0347922, "- N/A -   "
2.69, 78.4351, 0.004656613, NaN, NaN, NaN, 0.0335714, "- N/A -   "
2.81, 82.44528, 0.004859315, NaN, NaN, NaN, 0.0335714, "- N/A -   "
2.93, 86.33755, 0.00504813, NaN, NaN, NaN, 0.0372337, "- N/A -   "
3.05, 90.34776, 0.005234177, NaN, NaN, NaN, 0.0433376, "- N/A -   "
3.17, 94.9477, 0.00545354, NaN, NaN, NaN, 0.0347922, "- N/A -   "
3.29, 99.0759, 0.005656244, NaN, NaN, NaN, 0.0347922, "- N/A -   "
3.41, 103.44, 0.0058645, NaN, NaN, NaN, 0.0299091, "- N/A -   "
3.53, 107.45, 0.006056096, NaN, NaN, NaN, 0.03601294, "- N/A -   "
3.65, 111.224, 0.006233808, NaN, NaN, NaN, 0.0445584, "- N/A -   "
3.77, 115.706, 0.00644206, NaN, NaN, NaN, 0.04211683, "- N/A -   "
3.89, 120.188, 0.006655874, NaN, NaN, NaN, 0.03601294, "- N/A -   "
4.01, 124.788, 0.00686135, NaN, NaN, NaN, 0.0323506, "- N/A -   "
4.13, 129.152, 0.00706406, NaN, NaN, NaN, 0.03112983, "- N/A -   "
4.25, 132.9268, 0.007238992, NaN, NaN, NaN, 0.04211683, "- N/A -   "
4.37, 137.055, 0.00743336, NaN, NaN, NaN, 0.0445584, "- N/A -   "
4.49, 141.773, 0.0076444, NaN, NaN, NaN, 0.0396753, "- N/A -   "
4.61, 146.6087, 0.007869315, NaN, NaN, NaN, 0.0286883, "- N/A -   "
4.73, 150.855, 0.008060911, NaN, NaN, NaN, 0.0323506, "- N/A -   "
4.85, 154.747, 0.008244176, NaN, NaN, NaN, 0.0396753, "- N/A -   "
4.97, 158.9932, 0.008441325, NaN, NaN, NaN, 0.04211683, "- N/A -   "
5.09, 163.357, 0.008641251, NaN, NaN, NaN, 0.04089605, "- N/A -   "
5.21, 167.9572, 0.008855062, NaN, NaN, NaN, 0.0347922, "- N/A -   "
5.33, 172.203, 0.009054988, NaN, NaN, NaN, 0.0347922, "- N/A -   "
5.45, 176.567, 0.009257691, NaN, NaN, NaN, 0.0335714, "- N/A -   "
5.57, 180.46, 0.009452064, NaN, NaN, NaN, 0.03601294, "- N/A -   "
5.69, 184.47, 0.00964366, NaN, NaN, NaN, 0.0396753, "- N/A -   "
5.81, 188.716, 0.00984914, NaN, NaN, NaN, 0.0372337, "- N/A -   "
5.93, 192.844, 0.0100546, NaN, NaN, NaN, 0.03601294, "- N/A -   "
6.05, 196.854, 0.0102573, NaN, NaN, NaN, 0.0347922, "- N/A -   "
6.17, 200.865, 0.0104572, NaN, NaN, NaN, 0.0347922, "- N/A -   "
6.29, 204.521, 0.01065162, NaN, NaN, NaN, 0.0372337, "- N/A -   "
6.41, 208.295, 0.01084044, NaN, NaN, NaN, 0.04089605, "- N/A -   "
6.53, 212.4234, 0.0110431, NaN, NaN, NaN, 0.0396753, "- N/A -   "
6.65, 216.67, 0.011257, NaN, NaN, NaN, 0.0335714, "- N/A -   "
6.77, 220.68, 0.0114569, NaN, NaN, NaN, 0.0335714, "- N/A -   "
6.89, 225.044, 0.0116679, NaN, NaN, NaN, 0.0286883, "- N/A -   "
7.01, 228.228, 0.0118373, NaN, NaN, NaN, 0.0433376, "- N/A -   "
7.13, 232.357, 0.0120344, NaN, NaN, NaN, 0.0445584, "- N/A -   "
7.25, 236.839, 0.01225103, NaN, NaN, NaN, 0.03601294, "- N/A -   "
7.37, 241.085, 0.0124621, NaN, NaN, NaN, 0.0323506, "- N/A -   "
7.49, 245.328, 0.0126731, NaN, NaN, NaN, 0.0262467, "- N/A -   "
7.61, 248.863, 0.012848, NaN, NaN, NaN, 0.0372337, "- N/A -   "
7.73, 252.515, 0.0130313, NaN, NaN, NaN, 0.0445584, "- N/A -   "
7.85, 257.11, 0.01324233, NaN, NaN, NaN, 0.0396753, "- N/A -   "
7.97, 261.588, 0.0134617, NaN, NaN, NaN, 0.03112983, "- N/A -   "
8.09, 265.712, 0.0136672, NaN, NaN, NaN, 0.0299091, "- N/A -   "
8.21, 269.6, 0.0138477, NaN, NaN, NaN, 0.0384545, "- N/A -   "
8.33, 273.7239, 0.0140476, NaN, NaN, NaN, 0.0384545, "- N/A -   "
[...]
23.08, 876.031, 0.0386413, NaN, NaN, NaN, 0.0347922, "- N/A -   "
23.14, 878.633, 0.0387412, NaN, NaN, NaN, 0.0347922, "- N/A -   "
23.2, 881.3534, 0.038844, NaN, NaN, NaN, 0.0323506, "- N/A -   "
23.26, 883.719, 0.0389384, NaN, NaN, NaN, 0.0347922, "- N/A -   "
23.32, 886.3212, 0.03904113, NaN, NaN, NaN, 0.0335714, "- N/A -   "
23.38, 888.9234, 0.03913554, NaN, NaN, NaN, 0.0372337, "- N/A -   "
23.44, 891.5256, 0.0392299, NaN, NaN, NaN, 0.0396753, "- N/A -   "
23.5, 893.655, 0.0393188, NaN, NaN, NaN, 0.0433376, "- N/A -   "
23.56, 896.4934, 0.03942432, NaN, NaN, NaN, 0.04211683, "- N/A -   "
23.62, 899.569, 0.0395354, NaN, NaN, NaN, 0.03601294, "- N/A -   "
23.68, 902.644, 0.03964924, NaN, NaN, NaN, 0.0299091, "- N/A -   "
23.74, 905.0096, 0.0397436, NaN, NaN, NaN, 0.0323506, "- N/A -   "
23.8, 907.612, 0.0398408, NaN, NaN, NaN, 0.0335714, "- N/A -   "
23.86, 910.3322, 0.03994635, NaN, NaN, NaN, 0.03112983, "- N/A -   "
23.92, 913.0527, 0.0400519, NaN, NaN, NaN, 0.0286883, "- N/A -   "
23.98, 915.655, 0.0401463, NaN, NaN, NaN, 0.03112983, "- N/A -   "
24.04, 917.784, 0.0402351, NaN, NaN, NaN, 0.03601294, "- N/A -   "
24.1, 920.031, 0.0403212, NaN, NaN, NaN, 0.0433376, "- N/A -   "
24.16, 922.3969, 0.0404128, NaN, NaN, NaN, 0.04699994, "- N/A -   "
24.22, 925.1174, 0.0405156, NaN, NaN, NaN, 0.0445584, "- N/A -   "
24.28, 927.956, 0.0406267, NaN, NaN, NaN, 0.04089605, "- N/A -   "
24.34, 930.7948, 0.04073495, NaN, NaN, NaN, 0.03601294, "- N/A -   "
24.4, 933.634, 0.04083769, NaN, NaN, NaN, 0.0347922, "- N/A -   "
24.46, 936.4723, 0.04094876, NaN, NaN, NaN, 0.0299091, "- N/A -   "
24.52, 939.193, 0.0410515, NaN, NaN, NaN, 0.0286883, "- N/A -   "
24.58, 941.677, 0.04114868, NaN, NaN, NaN, 0.0299091, "- N/A -   "
24.64, 943.924, 0.04123476, NaN, NaN, NaN, 0.03601294, "- N/A -   "
24.7, 946.1713, 0.0413208, NaN, NaN, NaN, 0.04211683, "- N/A -   "
24.76, 948.6552, 0.041418, NaN, NaN, NaN, 0.0445584, "- N/A -   "
24.82, 951.3757, 0.041518, NaN, NaN, NaN, 0.0433376, "- N/A -   "
24.88, 954.0961, 0.04162073, NaN, NaN, NaN, 0.0433376, "- N/A -   "
24.94, 956.8166, 0.04172625, NaN, NaN, NaN, 0.0396753, "- N/A -   "
25, 960.1284, 0.04184565, NaN, NaN, NaN, 0.0323506, "- N/A -   "
25.06, 963.085, 0.04195672, NaN, NaN, NaN, 0.0262467, "- N/A -   "
25.12, 965.569, 0.04205113, NaN, NaN, NaN, 0.0286883, "- N/A -   "
25.18, 967.935, 0.0421483, NaN, NaN, NaN, 0.03112983, "- N/A -   "
25.24, 970.4189, 0.04223995, NaN, NaN, NaN, 0.0347922, "- N/A -   "
25.3, 973.021, 0.04233713, NaN, NaN, NaN, 0.0347922, "- N/A -   "
25.36, 975.7415, 0.0424371, NaN, NaN, NaN, 0.0347922, "- N/A -   "
25.42, 977.8706, 0.042526, NaN, NaN, NaN, 0.04089605, "- N/A -   "
25.48, 980.3545, 0.04261481, NaN, NaN, NaN, 0.0445584, "- N/A -   "
25.54, 982.957, 0.042712, NaN, NaN, NaN, 0.04577916, "- N/A -   "
25.6, 986.2685, 0.0428314, NaN, NaN, NaN, 0.0384545, "- N/A -   "
25.66, 988.989, 0.0429425, NaN, NaN, NaN, 0.0335714, "- N/A -   "
25.72, 991.8277, 0.0430452, NaN, NaN, NaN, 0.03112983, "- N/A -   "
25.78, 994.1933, 0.0431368, NaN, NaN, NaN, 0.03601294, "- N/A -   "
25.84, 996.677, 0.04323125, NaN, NaN, NaN, 0.0372337, "- N/A -   "
25.9, 999.6342, 0.04333954, NaN, NaN, NaN, 0.0335714, "- N/A -   "
25.96, 1002.473, 0.04344506, NaN, NaN, NaN, 0.03112983, "- N/A -   "
26.02, 1004.72, 0.04353669, NaN, NaN, NaN, 0.0347922, "- N/A -   "
26.08, 1006.97, 0.04362277, NaN, NaN, NaN, 0.04089605, "- N/A -   "
26.14, 1009.57, 0.04372273, NaN, NaN, NaN, 0.04211683, "- N/A -   "
26.2, 1012.65, 0.043831, NaN, NaN, NaN, 0.0384545, "- N/A -   "
26.232, 1013.954, 0.0438838, NaN, NaN, NaN, 0.0384545, "- N/A -   "