Folder: DigitalTwins-Machine-Learning/2_Tensile_Data (part 38)

File: Hamel_ForceTest_Bolt9_Test9.csv
Time, Load (lb), Position (in), AxialStrain (in), TransverseStrain (in), Auxiliary (), Control Out (V), Stress (psi)
0.0, 14.9793, 0.0, NaN, NaN, NaN, -0.006714277, "- N/A -   "
0.01, 14.9793, 2.776752E-6, NaN, NaN, NaN, 0.01037661, "- N/A -   "
0.02, 15.0973, 5.553504E-6, NaN, NaN, NaN, 0.0286883, "- N/A -   "
0.03, 15.2152, 1.1107e-05, NaN, NaN, NaN, 0.04577916, "- N/A -   "
0.04, 15.4511, 2.49908e-05, NaN, NaN, NaN, 0.0604285, "- N/A -   "
0.05, 15.805, 3.88745e-05, NaN, NaN, NaN, 0.07263627, "- N/A -   "
0.06, 16.0409, 5.83118e-05, NaN, NaN, NaN, 0.08362327, "- N/A -   "
0.07, 16.5126, 8.33026e-05, NaN, NaN, NaN, 0.09216871, "- N/A -   "
0.08, 16.9844, 0.00011107, NaN, NaN, NaN, 0.100714, "- N/A -   "
0.09, 17.5742, 1.388376E-4, NaN, NaN, NaN, 0.106818, "- N/A -   "
0.1, 18.046, 0.000172159, NaN, NaN, NaN, 0.108039, "- N/A -   "
0.11, 18.5178, 0.000202703, NaN, NaN, NaN, 0.100714, "- N/A -   "
0.12, 19.1075, 2.304704E-4, NaN, NaN, NaN, 0.095831, "- N/A -   "
0.13, 19.4613, 2.582379E-4, NaN, NaN, NaN, 0.09094793, "- N/A -   "
0.14, 19.8152, 2.832287E-4, NaN, NaN, NaN, 0.0872856, "- N/A -   "
0.15, 20.169, 0.000308219, NaN, NaN, NaN, 0.084844, "- N/A -   "
0.16, 20.52286, 0.000330433, NaN, NaN, NaN, 0.08240249, "- N/A -   "
0.17, 20.99465, 0.000349871, NaN, NaN, NaN, 0.0799609, "- N/A -   "
0.18, 21.3485, 0.000372085, NaN, NaN, NaN, 0.07751938, "- N/A -   "
0.19, 21.5844, 0.000391522, NaN, NaN, NaN, 0.0762986, "- N/A -   "
0.2, 21.93823, 4.13736E-4, NaN, NaN, NaN, 0.07385705, "- N/A -   "
0.21, 22.41, 4.387268E-4, NaN, NaN, NaN, 0.07141549, "- N/A -   "
0.22, 22.7639, 4.609408E-4, NaN, NaN, NaN, 0.06775316, "- N/A -   "
0.23, 23.1177, 0.000485932, NaN, NaN, NaN, 0.0653116, "- N/A -   "
0.24, 23.3536, 5.081456E-4, NaN, NaN, NaN, 0.06287005, "- N/A -   "
0.25, 23.82539, 0.00053036, NaN, NaN, NaN, 0.0592077, "- N/A -   "
0.26, 24.1792, 5.525736E-4, NaN, NaN, NaN, 0.0579869, "- N/A -   "
0.27, 24.5331, 5.747876E-4, NaN, NaN, NaN, 0.0555454, "- N/A -   "
0.28, 25.0049, 0.000597002, NaN, NaN, NaN, 0.0531038, "- N/A -   "
0.29, 25.2408, 0.000619216, NaN, NaN, NaN, 0.0494415, "- N/A -   "
0.3, 25.4767, 6.414297E-4, NaN, NaN, NaN, 0.0482207, "- N/A -   "
0.31, 25.9484, 6.608669E-4, NaN, NaN, NaN, 0.04699994, "- N/A -   "
0.35, 27.1279, 0.000735839, NaN, NaN, NaN, 0.04211683, "- N/A -   "
0.39, 28.42534, 0.000813588, NaN, NaN, NaN, 0.0372337, "- N/A -   "
0.43, 29.6048, 0.000891337, NaN, NaN, NaN, 0.0323506, "- N/A -   "
0.47, 30.6663, 9.635329E-4, NaN, NaN, NaN, 0.0299091, "- N/A -   "
0.51, 31.8458, 0.00103295, NaN, NaN, NaN, 0.0286883, "- N/A -   "
0.55, 32.7894, 0.00109404, NaN, NaN, NaN, 0.03112983, "- N/A -   "
0.59, 33.73298, 0.00115513, NaN, NaN, NaN, 0.0335714, "- N/A -   "
0.63, 34.6766, 0.00121066, NaN, NaN, NaN, 0.0384545, "- N/A -   "
0.67, 35.50219, 0.00127175, NaN, NaN, NaN, 0.04089605, "- N/A -   "
0.71, 36.5637, 0.00133006, NaN, NaN, NaN, 0.04577916, "- N/A -   "
0.75, 37.3893, 0.00139393, NaN, NaN, NaN, 0.04577916, "- N/A -   "
0.79, 38.4509, 0.00146057, NaN, NaN, NaN, 0.04577916, "- N/A -   "
0.83, 39.6304, 0.00152721, NaN, NaN, NaN, 0.04577916, "- N/A -   "
0.87, 40.57393, 0.001599409, NaN, NaN, NaN, 0.0433376, "- N/A -   "
0.91, 41.7534, 0.00166883, NaN, NaN, NaN, 0.04211683, "- N/A -   "
0.95, 42.93288, 0.00175213, NaN, NaN, NaN, 0.03601294, "- N/A -   "
0.99, 44.34825, 0.00183266, NaN, NaN, NaN, 0.0286883, "- N/A -   "
1.03, 45.40978, 0.001902075, NaN, NaN, NaN, 0.0274675, "- N/A -   "
1.07, 46.3534, 0.001968717, NaN, NaN, NaN, 0.0274675, "- N/A -   "
1.11, 47.5328, 0.00203258, NaN, NaN, NaN, 0.0286883, "- N/A -   "
1.15, 48.47641, 0.00209645, NaN, NaN, NaN, 0.0299091, "- N/A -   "
1.19, 49.5379, 0.002157536, NaN, NaN, NaN, 0.0323506, "- N/A -   "
1.23, 50.4815, 0.00221862, NaN, NaN, NaN, 0.0347922, "- N/A -   "
1.27, 51.4251, 0.00227971, NaN, NaN, NaN, 0.0372337, "- N/A -   "
1.31, 52.48662, 0.00234636, NaN, NaN, NaN, 0.0372337, "- N/A -   "
1.35, 53.6661, 0.002413, NaN, NaN, NaN, 0.0372337, "- N/A -   "
1.39, 54.6097, 0.00247409, NaN, NaN, NaN, 0.0396753, "- N/A -   "
1.43, 55.55326, 0.00253795, NaN, NaN, NaN, 0.04089605, "- N/A -   "
1.47, 56.6148, 0.00259904, NaN, NaN, NaN, 0.0445584, "- N/A -   "
1.51, 57.5584, 0.00266013, NaN, NaN, NaN, 0.04577916, "- N/A -   "
1.55, 58.8558, 0.0027351, NaN, NaN, NaN, 0.04211683, "- N/A -   "
1.59, 60.27116, 0.00281007, NaN, NaN, NaN, 0.0396753, "- N/A -   "
1.63, 61.45063, 0.00288227, NaN, NaN, NaN, 0.03601294, "- N/A -   "
1.67, 62.7481, 0.002954464, NaN, NaN, NaN, 0.0335714, "- N/A -   "
1.71, 63.80958, 0.003021106, NaN, NaN, NaN, 0.0347922, "- N/A -   "
1.75, 64.75317, 0.00308219, NaN, NaN, NaN, 0.0372337, "- N/A -   "
1.79, 65.81469, 0.00314606, NaN, NaN, NaN, 0.0372337, "- N/A -   "
1.83, 66.99416, 0.003212702, NaN, NaN, NaN, 0.0372337, "- N/A -   "
1.87, 68.17364, 0.00328767, NaN, NaN, NaN, 0.0347922, "- N/A -   "
1.91, 69.47106, 0.00335987, NaN, NaN, NaN, 0.0323506, "- N/A -   "
1.95, 70.6505, 0.003426512, NaN, NaN, NaN, 0.0323506, "- N/A -   "
1.99, 71.59412, 0.00348482, NaN, NaN, NaN, 0.0347922, "- N/A -   "
2.03, 72.5377, 0.00354591, NaN, NaN, NaN, 0.0372337, "- N/A -   "
2.07, 73.59922, 0.00360422, NaN, NaN, NaN, 0.04089605, "- N/A -   "
2.11, 74.66075, 0.00367087, NaN, NaN, NaN, 0.04211683, "- N/A -   "
2.15, 75.8402, 0.00374028, NaN, NaN, NaN, 0.0396753, "- N/A -   "
2.19, 77.0197, 0.00380693, NaN, NaN, NaN, 0.0396753, "- N/A -   "
2.23, 78.31712, 0.00387912, NaN, NaN, NaN, 0.0372337, "- N/A -   "
2.27, 79.4966, 0.00395132, NaN, NaN, NaN, 0.03601294, "- N/A -   "
2.31, 80.794, 0.00402074, NaN, NaN, NaN, 0.0335714, "- N/A -   "
2.35, 81.97349, 0.00409016, NaN, NaN, NaN, 0.0335714, "- N/A -   "
2.39, 83.03502, 0.004154021, NaN, NaN, NaN, 0.0347922, "- N/A -   "
2.43, 84.09654, 0.004217886, NaN, NaN, NaN, 0.0347922, "- N/A -   "
2.47, 85.39397, 0.004287305, NaN, NaN, NaN, 0.0335714, "- N/A -   "
2.51, 86.4555, 0.0043595, NaN, NaN, NaN, 0.0323506, "- N/A -   "
2.55, 87.75292, 0.00442614, NaN, NaN, NaN, 0.0323506, "- N/A -   "
2.59, 88.8144, 0.00449001, NaN, NaN, NaN, 0.0323506, "- N/A -   "
2.63, 89.87598, 0.004553873, NaN, NaN, NaN, 0.0335714, "- N/A -   "
2.67, 91.05545, 0.004620515, NaN, NaN, NaN, 0.0335714, "- N/A -   "
2.71, 92.35287, 0.00468993, NaN, NaN, NaN, 0.0323506, "- N/A -   "
2.75, 93.2965, 0.00474825, NaN, NaN, NaN, 0.03601294, "- N/A -   "
2.79, 94.35797, 0.004812111, NaN, NaN, NaN, 0.0372337, "- N/A -   "
2.83, 95.41951, 0.0048732, NaN, NaN, NaN, 0.0396753, "- N/A -   "
2.87, 96.481, 0.00493151, NaN, NaN, NaN, 0.0433376, "- N/A -   "
2.91, 97.6605, 0.004995377, NaN, NaN, NaN, 0.0445584, "- N/A -   "
2.95, 98.83998, 0.005062019, NaN, NaN, NaN, 0.0445584, "- N/A -   "
2.99, 100.137, 0.005136991, NaN, NaN, NaN, 0.04211683, "- N/A -   "
3.03, 101.553, 0.00521196, NaN, NaN, NaN, 0.0384545, "- N/A -   "
3.07, 102.968, 0.005284159, NaN, NaN, NaN, 0.0347922, "- N/A -   "
3.11, 104.03, 0.00534802, NaN, NaN, NaN, 0.03601294, "- N/A -   "
3.15, 105.091, 0.005414666, NaN, NaN, NaN, 0.0372337, "- N/A -   "
3.19, 106.507, 0.005484085, NaN, NaN, NaN, 0.03601294, "- N/A -   "
3.23, 107.804, 0.00555628, NaN, NaN, NaN, 0.0323506, "- N/A -   "
3.27, 109.219, 0.00563403, NaN, NaN, NaN, 0.0286883, "- N/A -   "
3.31, 110.399, 0.00569512, NaN, NaN, NaN, 0.0299091, "- N/A -   "
[...]
34.32, 1369.09, 0.057351, NaN, NaN, NaN, 0.04211683, "- N/A -   "
34.45, 1375.41, 0.0575815, NaN, NaN, NaN, 0.03601294, "- N/A -   "
34.58, 1381.97, 0.05781475, NaN, NaN, NaN, 0.0286883, "- N/A -   "
34.71, 1387.45, 0.0580202, NaN, NaN, NaN, 0.0335714, "- N/A -   "
34.84, 1392.82, 0.0582174, NaN, NaN, NaN, 0.04211683, "- N/A -   "
34.97, 1398.78, 0.058434, NaN, NaN, NaN, 0.0433376, "- N/A -   "
35.1, 1405.58, 0.0586728, NaN, NaN, NaN, 0.0323506, "- N/A -   "
35.23, 1411.9, 0.05890324, NaN, NaN, NaN, 0.0274675, "- N/A -   "
35.36, 1417.26, 0.0591032, NaN, NaN, NaN, 0.0347922, "- N/A -   "
35.49, 1423.11, 0.05931142, NaN, NaN, NaN, 0.0384545, "- N/A -   "
35.62, 1428.71, 0.05951412, NaN, NaN, NaN, 0.04577916, "- N/A -   "
35.75, 1435.51, 0.0597557, NaN, NaN, NaN, 0.0335714, "- N/A -   "
35.88, 1441, 0.0599584, NaN, NaN, NaN, 0.0396753, "- N/A -   "
36.01, 1447.55, 0.06019165, NaN, NaN, NaN, 0.0335714, "- N/A -   "
36.14, 1453.159, 0.0603916, NaN, NaN, NaN, 0.0396753, "- N/A -   "
36.27, 1459.12, 0.0606109, NaN, NaN, NaN, 0.0384545, "- N/A -   "
36.4, 1465.08, 0.0608275, NaN, NaN, NaN, 0.0384545, "- N/A -   "
36.53, 1471.29, 0.0610497, NaN, NaN, NaN, 0.03601294, "- N/A -   "
36.66, 1477.37, 0.06127181, NaN, NaN, NaN, 0.0347922, "- N/A -   "
36.79, 1483.69, 0.0614939, NaN, NaN, NaN, 0.0323506, "- N/A -   "
36.92, 1488.82, 0.06168832, NaN, NaN, NaN, 0.04211683, "- N/A -   "
37.05, 1494.66, 0.0618966, NaN, NaN, NaN, 0.04577916, "- N/A -   "
37.18, 1501.456, 0.0621382, NaN, NaN, NaN, 0.0335714, "- N/A -   "
37.31, 1507.42, 0.062352, NaN, NaN, NaN, 0.0347922, "- N/A -   "
37.44, 1513.5, 0.0625741, NaN, NaN, NaN, 0.0323506, "- N/A -   "
37.57, 1518.87, 0.06277403, NaN, NaN, NaN, 0.04089605, "- N/A -   "
37.7, 1524.47, 0.0629795, NaN, NaN, NaN, 0.0445584, "- N/A -   "
37.83, 1531.269, 0.06322109, NaN, NaN, NaN, 0.0335714, "- N/A -   "
37.96, 1537.59, 0.063446, NaN, NaN, NaN, 0.0299091, "- N/A -   "
38.09, 1543.552, 0.06366259, NaN, NaN, NaN, 0.0299091, "- N/A -   "
38.22, 1548.68, 0.06385141, NaN, NaN, NaN, 0.04211683, "- N/A -   "
38.35, 1554.4, 0.06405967, NaN, NaN, NaN, 0.04577916, "- N/A -   "
38.48, 1561.2, 0.0642985, NaN, NaN, NaN, 0.03601294, "- N/A -   "
38.61, 1567.4, 0.0645262, NaN, NaN, NaN, 0.03112983, "- N/A -   "
38.74, 1573.01, 0.06472886, NaN, NaN, NaN, 0.0372337, "- N/A -   "
38.87, 1578.85, 0.06494267, NaN, NaN, NaN, 0.0384545, "- N/A -   "
39, 1584.694, 0.06514815, NaN, NaN, NaN, 0.0433376, "- N/A -   "
39.13, 1591.49, 0.06539528, NaN, NaN, NaN, 0.0299091, "- N/A -   "
39.26, 1597.33, 0.06560909, NaN, NaN, NaN, 0.03112983, "- N/A -   "
39.39, 1603.178, 0.0658229, NaN, NaN, NaN, 0.0335714, "- N/A -   "
39.52, 1609.14, 0.06603394, NaN, NaN, NaN, 0.0347922, "- N/A -   "
39.65, 1614.507, 0.06623109, NaN, NaN, NaN, 0.0433376, "- N/A -   "
39.78, 1620.71, 0.0664588, NaN, NaN, NaN, 0.0396753, "- N/A -   "
39.91, 1627.15, 0.0666809, NaN, NaN, NaN, 0.0372337, "- N/A -   "
40.04, 1632.87, 0.06689473, NaN, NaN, NaN, 0.0384545, "- N/A -   "
40.17, 1639.07, 0.0671252, NaN, NaN, NaN, 0.0335714, "- N/A -   "
40.3, 1644.8, 0.0673279, NaN, NaN, NaN, 0.0384545, "- N/A -   "
40.43, 1650.28, 0.06753338, NaN, NaN, NaN, 0.0433376, "- N/A -   "
40.56, 1656.96, 0.06777219, NaN, NaN, NaN, 0.0335714, "- N/A -   "
40.69, 1663.281, 0.06799988, NaN, NaN, NaN, 0.0286883, "- N/A -   "
40.82, 1669.12, 0.068222, NaN, NaN, NaN, 0.0274675, "- N/A -   "
40.95, 1674.25, 0.0684053, NaN, NaN, NaN, 0.04089605, "- N/A -   "
41.08, 1679.02, 0.06859133, NaN, NaN, NaN, 0.0543246, "- N/A -   "
41.21, 1686.3, 0.06884956, NaN, NaN, NaN, 0.03601294, "- N/A -   "
41.262, 1688.92, 0.06894675, NaN, NaN, NaN, 0.03112983, "- N/A -   "

File: Hamel_ForceTest_Bolt9_Test10.csv
Time, Load (lb), Position (in), AxialStrain (in), TransverseStrain (in), Auxiliary (), Control Out (V), Stress (psi)
0.0, 13.7999, 0.0, NaN, NaN, NaN, -0.006714277, "- N/A -   "
0.01, 13.7999, 2.776752E-6, NaN, NaN, NaN, -6.103888E-4, "- N/A -   "
0.02, 13.7999, 2.776752E-6, NaN, NaN, NaN, 0.007935055, "- N/A -   "
0.03, 13.7999, 2.776752E-6, NaN, NaN, NaN, 0.0274675, "- N/A -   "
0.04, 13.7999, 8.330256E-6, NaN, NaN, NaN, 0.0445584, "- N/A -   "
0.05, 14.0357, 2.2214e-05, NaN, NaN, NaN, 0.0592077, "- N/A -   "
0.06, 14.3896, 3.60978e-05, NaN, NaN, NaN, 0.07141549, "- N/A -   "
0.07, 14.8614, 6.108854E-5, NaN, NaN, NaN, 0.08118171, "- N/A -   "
0.08, 15.2152, 8.33026e-05, NaN, NaN, NaN, 0.0897272, "- N/A -   "
0.09, 15.687, 0.00011107, NaN, NaN, NaN, 0.09705182, "- N/A -   "
0.1, 16.1588, 0.000141614, NaN, NaN, NaN, 0.100714, "- N/A -   "
0.11, 16.6306, 0.000172159, NaN, NaN, NaN, 0.09461027, "- N/A -   "
0.12, 17.2203, 0.000202703, NaN, NaN, NaN, 0.0897272, "- N/A -   "
0.13, 17.5742, 0.000227694, NaN, NaN, NaN, 0.084844, "- N/A -   "
0.14, 17.928, 0.000255461, NaN, NaN, NaN, 0.0799609, "- N/A -   "
0.15, 18.2819, 0.000280452, NaN, NaN, NaN, 0.07751938, "- N/A -   "
0.16, 18.6357, 2.998892E-4, NaN, NaN, NaN, 0.0750778, "- N/A -   "
0.17, 18.8716, 3.221032E-4, NaN, NaN, NaN, 0.07263627, "- N/A -   "
0.18, 19.1075, 0.00034154, NaN, NaN, NaN, 0.07141549, "- N/A -   "
0.19, 19.4613, 0.000360978, NaN, NaN, NaN, 0.0701947, "- N/A -   "
0.2, 19.6972, 0.000383192, NaN, NaN, NaN, 0.06775316, "- N/A -   "
0.21, 20.05107, 0.000402629, NaN, NaN, NaN, 0.06653238, "- N/A -   "
0.22, 20.287, 0.000422066, NaN, NaN, NaN, 0.0653116, "- N/A -   "
0.23, 20.6408, 0.000441504, NaN, NaN, NaN, 0.0653116, "- N/A -   "
0.24, 20.7588, 4.609408E-4, NaN, NaN, NaN, 0.0640908, "- N/A -   "
0.25, 21.1126, 0.000480378, NaN, NaN, NaN, 0.06287005, "- N/A -   "
0.26, 21.46644, 0.000499815, NaN, NaN, NaN, 0.06164927, "- N/A -   "
0.27, 21.7023, 5.164758E-4, NaN, NaN, NaN, 0.0604285, "- N/A -   "
0.28, 22.0562, 5.359131E-4, NaN, NaN, NaN, 0.0592077, "- N/A -   "
0.29, 22.29207, 5.553504E-4, NaN, NaN, NaN, 0.0579869, "- N/A -   "
0.3, 22.528, 5.747876E-4, NaN, NaN, NaN, 0.05676616, "- N/A -   "
0.31, 22.7639, 0.000597002, NaN, NaN, NaN, 0.0555454, "- N/A -   "
0.32, 22.9998, 6.164389E-4, NaN, NaN, NaN, 0.0543246, "- N/A -   "
0.33, 23.3536, 0.000635876, NaN, NaN, NaN, 0.05188305, "- N/A -   "
0.34, 23.7074, 0.00065809, NaN, NaN, NaN, 0.05066227, "- N/A -   "
0.35, 24.0613, 0.000677527, NaN, NaN, NaN, 0.0494415, "- N/A -   "
0.36, 24.4151, 6.997415E-4, NaN, NaN, NaN, 0.04577916, "- N/A -   "
0.37, 24.65102, 7.191787E-4, NaN, NaN, NaN, 0.0445584, "- N/A -   "
0.38, 24.8869, 7.38616E-4, NaN, NaN, NaN, 0.0433376, "- N/A -   "
0.39, 25.1228, 0.000758053, NaN, NaN, NaN, 0.04211683, "- N/A -   "
0.4, 25.4767, 0.000774714, NaN, NaN, NaN, 0.04211683, "- N/A -   "
0.41, 25.5946, 0.000794151, NaN, NaN, NaN, 0.04089605, "- N/A -   "
0.42, 25.8305, 0.000813588, NaN, NaN, NaN, 0.04089605, "- N/A -   "
0.43, 26.18434, 8.302488E-4, NaN, NaN, NaN, 0.0396753, "- N/A -   "
0.44, 26.3023, 8.469093E-4, NaN, NaN, NaN, 0.0396753, "- N/A -   "
0.45, 26.5382, 8.635698E-4, NaN, NaN, NaN, 0.0396753, "- N/A -   "
0.46, 26.7741, 8.830071E-4, NaN, NaN, NaN, 0.0396753, "- N/A -   "
0.47, 27.1279, 0.000899668, NaN, NaN, NaN, 0.0384545, "- N/A -   "
0.48, 27.3638, 9.163281E-4, NaN, NaN, NaN, 0.0384545, "- N/A -   "
0.49, 27.5997, 0.000935765, NaN, NaN, NaN, 0.0372337, "- N/A -   "
0.5, 27.8356, 9.524259E-4, NaN, NaN, NaN, 0.0372337, "- N/A -   "
0.51, 28.1894, 0.000971863, NaN, NaN, NaN, 0.03601294, "- N/A -   "
0.56, 29.4869, 0.00106627, NaN, NaN, NaN, 0.03112983, "- N/A -   "
0.61, 30.78429, 0.001152352, NaN, NaN, NaN, 0.0299091, "- N/A -   "
0.66, 31.9638, 0.00123843, NaN, NaN, NaN, 0.0286883, "- N/A -   "
0.71, 32.9073, 0.00130785, NaN, NaN, NaN, 0.0347922, "- N/A -   "
0.76, 33.8509, 0.00137727, NaN, NaN, NaN, 0.04089605, "- N/A -   "
0.81, 35.0304, 0.00145779, NaN, NaN, NaN, 0.04211683, "- N/A -   "
0.86, 36.32782, 0.00153832, NaN, NaN, NaN, 0.0433376, "- N/A -   "
0.91, 37.6252, 0.001621623, NaN, NaN, NaN, 0.0445584, "- N/A -   "
0.96, 38.8047, 0.00170215, NaN, NaN, NaN, 0.0445584, "- N/A -   "
1.01, 40.22009, 0.00179656, NaN, NaN, NaN, 0.04089605, "- N/A -   "
1.06, 41.7534, 0.001890968, NaN, NaN, NaN, 0.0347922, "- N/A -   "
1.11, 43.1688, 0.001982601, NaN, NaN, NaN, 0.03112983, "- N/A -   "
1.16, 44.4662, 0.00206868, NaN, NaN, NaN, 0.0299091, "- N/A -   "
1.21, 45.76362, 0.002157536, NaN, NaN, NaN, 0.0274675, "- N/A -   "
1.26, 47.061, 0.00223529, NaN, NaN, NaN, 0.0299091, "- N/A -   "
1.31, 48.12257, 0.00231303, NaN, NaN, NaN, 0.0323506, "- N/A -   "
1.36, 49.6559, 0.00239634, NaN, NaN, NaN, 0.0323506, "- N/A -   "
1.41, 50.83536, 0.00247686, NaN, NaN, NaN, 0.0335714, "- N/A -   "
1.46, 51.89689, 0.00254906, NaN, NaN, NaN, 0.0384545, "- N/A -   "
1.51, 53.0764, 0.00262403, NaN, NaN, NaN, 0.0433376, "- N/A -   "
1.56, 54.4917, 0.00270178, NaN, NaN, NaN, 0.0445584, "- N/A -   "
1.61, 55.9071, 0.002785082, NaN, NaN, NaN, 0.0445584, "- N/A -   "
1.66, 57.20452, 0.00287116, NaN, NaN, NaN, 0.0433376, "- N/A -   "
1.71, 58.8558, 0.00296835, NaN, NaN, NaN, 0.0384545, "- N/A -   "
1.76, 60.5071, 0.00306276, NaN, NaN, NaN, 0.0335714, "- N/A -   "
1.81, 61.8045, 0.00314884, NaN, NaN, NaN, 0.03112983, "- N/A -   "
1.86, 63.2198, 0.003226586, NaN, NaN, NaN, 0.0335714, "- N/A -   "
1.91, 64.28137, 0.003304335, NaN, NaN, NaN, 0.0372337, "- N/A -   "
1.96, 65.69674, 0.00338764, NaN, NaN, NaN, 0.03601294, "- N/A -   "
2.01, 67.34801, 0.00347927, NaN, NaN, NaN, 0.0323506, "- N/A -   "
2.06, 68.6454, 0.00356257, NaN, NaN, NaN, 0.0335714, "- N/A -   "
2.11, 70.0608, 0.003637545, NaN, NaN, NaN, 0.03601294, "- N/A -   "
2.16, 71.12233, 0.00370974, NaN, NaN, NaN, 0.04089605, "- N/A -   "
2.21, 72.65564, 0.00379582, NaN, NaN, NaN, 0.0396753, "- N/A -   "
2.26, 74.189, 0.0038819, NaN, NaN, NaN, 0.0384545, "- N/A -   "
2.31, 75.6043, 0.003965202, NaN, NaN, NaN, 0.0384545, "- N/A -   "
2.36, 77.13765, 0.00405128, NaN, NaN, NaN, 0.0372337, "- N/A -   "
2.41, 78.55301, 0.00413458, NaN, NaN, NaN, 0.0372337, "- N/A -   "
2.46, 79.96838, 0.00422066, NaN, NaN, NaN, 0.0372337, "- N/A -   "
2.51, 81.38376, 0.00430119, NaN, NaN, NaN, 0.0372337, "- N/A -   "
2.56, 83.03502, 0.004392822, NaN, NaN, NaN, 0.0347922, "- N/A -   "
2.61, 84.45039, 0.0044789, NaN, NaN, NaN, 0.0323506, "- N/A -   "
2.66, 85.9837, 0.004567757, NaN, NaN, NaN, 0.03112983, "- N/A -   "
2.71, 87.51702, 0.00464828, NaN, NaN, NaN, 0.03112983, "- N/A -   "
2.76, 88.8144, 0.004728808, NaN, NaN, NaN, 0.0335714, "- N/A -   "
2.81, 90.34776, 0.004814888, NaN, NaN, NaN, 0.0323506, "- N/A -   "
2.86, 91.64519, 0.00488431, NaN, NaN, NaN, 0.0372337, "- N/A -   "
2.91, 93.1785, 0.004967609, NaN, NaN, NaN, 0.0372337, "- N/A -   "
2.96, 94.35797, 0.005039805, NaN, NaN, NaN, 0.04211683, "- N/A -   "
3.01, 95.6554, 0.005117554, NaN, NaN, NaN, 0.04577916, "- N/A -   "
3.06, 97.30666, 0.005203633, NaN, NaN, NaN, 0.0445584, "- N/A -   "
3.11, 98.9579, 0.005295266, NaN, NaN, NaN, 0.0396753, "- N/A -   "
3.16, 100.845, 0.00539245, NaN, NaN, NaN, 0.0335714, "- N/A -   "
3.21, 102.3784, 0.00547575, NaN, NaN, NaN, 0.0335714, "- N/A -   "
3.26, 103.676, 0.00555906, NaN, NaN, NaN, 0.0335714, "- N/A -   "
[...]
32.25, 1248.28, 0.0538579, NaN, NaN, NaN, 0.04211683, "- N/A -   "
32.49, 1259.85, 0.0542883, NaN, NaN, NaN, 0.0299091, "- N/A -   "
32.73, 1270.465, 0.05468535, NaN, NaN, NaN, 0.03112983, "- N/A -   "
32.97, 1280.48, 0.05506021, NaN, NaN, NaN, 0.04089605, "- N/A -   "
33.21, 1291.45, 0.0554684, NaN, NaN, NaN, 0.0384545, "- N/A -   "
33.45, 1302.31, 0.0558738, NaN, NaN, NaN, 0.0347922, "- N/A -   "
33.69, 1312.56, 0.05625699, NaN, NaN, NaN, 0.04211683, "- N/A -   "
33.93, 1324.25, 0.05668461, NaN, NaN, NaN, 0.0299091, "- N/A -   "
34.17, 1334.74, 0.0570761, NaN, NaN, NaN, 0.0335714, "- N/A -   "
34.41, 1344.759, 0.05745377, NaN, NaN, NaN, 0.0433376, "- N/A -   "
34.65, 1356.33, 0.0578814, NaN, NaN, NaN, 0.03112983, "- N/A -   "
34.89, 1366.34, 0.0582563, NaN, NaN, NaN, 0.04211683, "- N/A -   "
35.13, 1377.08, 0.05865888, NaN, NaN, NaN, 0.04089605, "- N/A -   "
35.37, 1388.763, 0.0590865, NaN, NaN, NaN, 0.0299091, "- N/A -   "
35.61, 1398.78, 0.0594614, NaN, NaN, NaN, 0.04089605, "- N/A -   "
35.85, 1409.87, 0.0598779, NaN, NaN, NaN, 0.0347922, "- N/A -   "
36.09, 1420.6, 0.06027495, NaN, NaN, NaN, 0.03601294, "- N/A -   "
36.33, 1430.86, 0.0606581, NaN, NaN, NaN, 0.0433376, "- N/A -   "
36.57, 1442.19, 0.0610747, NaN, NaN, NaN, 0.0347922, "- N/A -   "
36.81, 1452.8, 0.06147728, NaN, NaN, NaN, 0.0335714, "- N/A -   "
37.05, 1463.057, 0.0618577, NaN, NaN, NaN, 0.04211683, "- N/A -   "
37.29, 1474.39, 0.062277, NaN, NaN, NaN, 0.0347922, "- N/A -   "
37.53, 1485.48, 0.06268795, NaN, NaN, NaN, 0.0286883, "- N/A -   "
37.77, 1495.02, 0.0630517, NaN, NaN, NaN, 0.0445584, "- N/A -   "
38.01, 1506.7, 0.0634821, NaN, NaN, NaN, 0.03112983, "- N/A -   "
38.25, 1517.078, 0.06387085, NaN, NaN, NaN, 0.03601294, "- N/A -   "
38.49, 1527.21, 0.06425404, NaN, NaN, NaN, 0.0433376, "- N/A -   "
38.73, 1539.14, 0.06468999, NaN, NaN, NaN, 0.0274675, "- N/A -   "
38.97, 1549.4, 0.06507318, NaN, NaN, NaN, 0.0347922, "- N/A -   "
39.21, 1560.128, 0.06547581, NaN, NaN, NaN, 0.0335714, "- N/A -   "
39.45, 1570.503, 0.06586733, NaN, NaN, NaN, 0.0372337, "- N/A -   "
39.69, 1581.35, 0.0662644, NaN, NaN, NaN, 0.0396753, "- N/A -   "
39.93, 1592.21, 0.06666703, NaN, NaN, NaN, 0.0384545, "- N/A -   "
40.17, 1603.178, 0.067078, NaN, NaN, NaN, 0.0335714, "- N/A -   "
40.41, 1613.31, 0.0674612, NaN, NaN, NaN, 0.04089605, "- N/A -   "
40.65, 1624.29, 0.06786659, NaN, NaN, NaN, 0.0384545, "- N/A -   "
40.89, 1635.61, 0.06829143, NaN, NaN, NaN, 0.0274675, "- N/A -   "
41.13, 1644.92, 0.0686496, NaN, NaN, NaN, 0.04699994, "- N/A -   "
41.37, 1656.36, 0.06907725, NaN, NaN, NaN, 0.0347922, "- N/A -   "
41.61, 1667.34, 0.06948821, NaN, NaN, NaN, 0.0299091, "- N/A -   "
41.85, 1676.64, 0.069852, NaN, NaN, NaN, 0.0445584, "- N/A -   "
42.09, 1688.32, 0.0702907, NaN, NaN, NaN, 0.0286883, "- N/A -   "
42.33, 1698.22, 0.07066555, NaN, NaN, NaN, 0.0384545, "- N/A -   "
42.57, 1708.12, 0.07104875, NaN, NaN, NaN, 0.04577916, "- N/A -   "
42.81, 1719.33, 0.07147081, NaN, NaN, NaN, 0.0372337, "- N/A -   "
43.05, 1729.94, 0.07187344, NaN, NaN, NaN, 0.0347922, "- N/A -   "
43.29, 1740.2, 0.07226496, NaN, NaN, NaN, 0.0396753, "- N/A -   "
43.53, 1751.17, 0.07268148, NaN, NaN, NaN, 0.03112983, "- N/A -   "
43.77, 1761.43, 0.07307578, NaN, NaN, NaN, 0.0335714, "- N/A -   "
44.01, 1771.08, 0.07345342, NaN, NaN, NaN, 0.0445584, "- N/A -   "
44.25, 1782.18, 0.07387271, NaN, NaN, NaN, 0.0347922, "- N/A -   "
44.49, 1792.31, 0.07426701, NaN, NaN, NaN, 0.0384545, "- N/A -   "
44.73, 1802.925, 0.07467241, NaN, NaN, NaN, 0.03601294, "- N/A -   "
44.963, 1813.42, 0.07507782, NaN, NaN, NaN, 0.0286883, "- N/A -   "