Folder: DigitalTwins-Machine-Learning/2_Tensile_Data (part 41)

File: Hamel_ForceTest_Bolt10_Test4.csv
Time, Load (lb), Position (in), AxialStrain (in), TransverseStrain (in), Auxiliary (), Control Out (V), Stress (psi)
0.0, 1.06153, 0.0, NaN, NaN, NaN, 0.08850638, "- N/A -   "
0.01, 1.53332, 2.49908e-05, NaN, NaN, NaN, 0.09705182, "- N/A -   "
0.02, 2.005107, 5.27583e-05, NaN, NaN, NaN, 0.104376, "- N/A -   "
0.03, 2.59484, 8.33026e-05, NaN, NaN, NaN, 0.103156, "- N/A -   "
0.04, 3.18458, 0.000116624, NaN, NaN, NaN, 0.09705182, "- N/A -   "
0.05, 3.774319, 0.000147168, NaN, NaN, NaN, 0.09094793, "- N/A -   "
0.06, 4.36406, 0.000177712, NaN, NaN, NaN, 0.084844, "- N/A -   "
0.07, 4.953794, 0.000208256, NaN, NaN, NaN, 0.07874016, "- N/A -   "
0.08, 5.54353, 2.360239E-4, NaN, NaN, NaN, 0.07385705, "- N/A -   "
0.09, 6.01532, 0.000263791, NaN, NaN, NaN, 0.06775316, "- N/A -   "
0.1, 6.487111, 0.000291559, NaN, NaN, NaN, 0.0640908, "- N/A -   "
0.11, 6.9589, 3.165497E-4, NaN, NaN, NaN, 0.0592077, "- N/A -   "
0.12, 7.430691, 0.00034154, NaN, NaN, NaN, 0.0555454, "- N/A -   "
0.13, 7.90248, 0.000366531, NaN, NaN, NaN, 0.05188305, "- N/A -   "
0.14, 8.37427, 0.000391522, NaN, NaN, NaN, 0.0494415, "- N/A -   "
0.15, 8.728113, 0.000410959, NaN, NaN, NaN, 0.04699994, "- N/A -   "
0.16, 9.081955, 0.000430397, NaN, NaN, NaN, 0.04577916, "- N/A -   "
0.17, 9.435798, 0.000449834, NaN, NaN, NaN, 0.0445584, "- N/A -   "
0.18, 9.78964, 4.664943E-4, NaN, NaN, NaN, 0.0445584, "- N/A -   "
0.19, 10.26143, 4.831548E-4, NaN, NaN, NaN, 0.0445584, "- N/A -   "
0.2, 10.3794, 0.000502592, NaN, NaN, NaN, 0.0433376, "- N/A -   "
0.21, 10.73322, 5.164758E-4, NaN, NaN, NaN, 0.0445584, "- N/A -   "
0.22, 10.9691, 0.000533136, NaN, NaN, NaN, 0.0445584, "- N/A -   "
0.23, 11.205, 5.470201E-4, NaN, NaN, NaN, 0.04577916, "- N/A -   "
0.24, 11.5589, 5.636806E-4, NaN, NaN, NaN, 0.04699994, "- N/A -   "
0.25, 11.7947, 0.000577564, NaN, NaN, NaN, 0.0482207, "- N/A -   "
0.26, 12.14859, 5.942249E-4, NaN, NaN, NaN, 0.0482207, "- N/A -   "
0.27, 12.3845, 0.000608109, NaN, NaN, NaN, 0.0482207, "- N/A -   "
0.28, 12.7383, 0.000624769, NaN, NaN, NaN, 0.0482207, "- N/A -   "
0.29, 13.09217, 6.414297E-4, NaN, NaN, NaN, 0.0482207, "- N/A -   "
0.3, 13.3281, 0.000655313, NaN, NaN, NaN, 0.0494415, "- N/A -   "
0.31, 13.564, 6.719739E-4, NaN, NaN, NaN, 0.0494415, "- N/A -   "
0.32, 13.9178, 0.000688634, NaN, NaN, NaN, 0.0494415, "- N/A -   "
0.33, 14.2716, 0.000705295, NaN, NaN, NaN, 0.0494415, "- N/A -   "
0.34, 14.6255, 7.219555E-4, NaN, NaN, NaN, 0.0494415, "- N/A -   "
0.35, 14.8614, 7.38616E-4, NaN, NaN, NaN, 0.0494415, "- N/A -   "
0.36, 15.0973, 0.000758053, NaN, NaN, NaN, 0.0494415, "- N/A -   "
0.42, 17.3383, 8.691233E-4, NaN, NaN, NaN, 0.0445584, "- N/A -   "
0.48, 19.6972, 9.857469E-4, NaN, NaN, NaN, 0.03601294, "- N/A -   "
0.54, 21.7023, 0.00109126, NaN, NaN, NaN, 0.0335714, "- N/A -   "
0.6, 23.4715, 0.001194, NaN, NaN, NaN, 0.0323506, "- N/A -   "
0.66, 25.5946, 0.00129952, NaN, NaN, NaN, 0.0299091, "- N/A -   "
0.72, 27.5997, 0.001399483, NaN, NaN, NaN, 0.03112983, "- N/A -   "
0.78, 29.3689, 0.00149112, NaN, NaN, NaN, 0.0335714, "- N/A -   "
0.84, 31.0202, 0.00158275, NaN, NaN, NaN, 0.0384545, "- N/A -   "
0.9, 32.9073, 0.00166883, NaN, NaN, NaN, 0.0433376, "- N/A -   "
0.96, 34.7945, 0.00176601, NaN, NaN, NaN, 0.0445584, "- N/A -   "
1.02, 36.79961, 0.00186598, NaN, NaN, NaN, 0.0445584, "- N/A -   "
1.08, 38.9227, 0.00197149, NaN, NaN, NaN, 0.04211683, "- N/A -   "
1.14, 41.04572, 0.00207423, NaN, NaN, NaN, 0.04089605, "- N/A -   "
1.2, 43.5226, 0.00219641, NaN, NaN, NaN, 0.0323506, "- N/A -   "
1.26, 45.6457, 0.00229915, NaN, NaN, NaN, 0.0299091, "- N/A -   "
1.32, 47.5328, 0.002396337, NaN, NaN, NaN, 0.0323506, "- N/A -   "
1.38, 49.5379, 0.00249075, NaN, NaN, NaN, 0.0347922, "- N/A -   "
1.44, 51.66099, 0.00258793, NaN, NaN, NaN, 0.0347922, "- N/A -   "
1.5, 53.54815, 0.00268234, NaN, NaN, NaN, 0.0372337, "- N/A -   "
1.56, 55.6712, 0.00277953, NaN, NaN, NaN, 0.0384545, "- N/A -   "
1.62, 57.5584, 0.00286838, NaN, NaN, NaN, 0.0433376, "- N/A -   "
1.68, 59.5635, 0.00296279, NaN, NaN, NaN, 0.04577916, "- N/A -   "
1.74, 61.8045, 0.003065534, NaN, NaN, NaN, 0.0445584, "- N/A -   "
1.8, 64.28137, 0.00318493, NaN, NaN, NaN, 0.03601294, "- N/A -   "
1.86, 66.75827, 0.003298781, NaN, NaN, NaN, 0.03112983, "- N/A -   "
1.92, 68.8813, 0.00340152, NaN, NaN, NaN, 0.0299091, "- N/A -   "
1.98, 70.88643, 0.00349038, NaN, NaN, NaN, 0.0347922, "- N/A -   "
2.04, 73.00948, 0.00359034, NaN, NaN, NaN, 0.0335714, "- N/A -   "
2.1, 75.13254, 0.00369308, NaN, NaN, NaN, 0.0323506, "- N/A -   "
2.16, 77.13765, 0.00378749, NaN, NaN, NaN, 0.03601294, "- N/A -   "
2.22, 79.2607, 0.003881899, NaN, NaN, NaN, 0.0372337, "- N/A -   "
2.28, 80.912, 0.00397076, NaN, NaN, NaN, 0.0433376, "- N/A -   "
2.34, 83.15297, 0.004073495, NaN, NaN, NaN, 0.04089605, "- N/A -   "
2.4, 85.39397, 0.004176235, NaN, NaN, NaN, 0.0396753, "- N/A -   "
2.46, 87.51702, 0.00428175, NaN, NaN, NaN, 0.0384545, "- N/A -   "
2.52, 89.6401, 0.00438171, NaN, NaN, NaN, 0.0372337, "- N/A -   "
2.58, 91.76313, 0.00448168, NaN, NaN, NaN, 0.0372337, "- N/A -   "
2.64, 93.8862, 0.00458997, NaN, NaN, NaN, 0.0347922, "- N/A -   "
2.7, 96.00924, 0.00469271, NaN, NaN, NaN, 0.0335714, "- N/A -   "
2.76, 97.8964, 0.00478712, NaN, NaN, NaN, 0.0347922, "- N/A -   "
2.82, 99.9015, 0.004887083, NaN, NaN, NaN, 0.0347922, "- N/A -   "
2.88, 102.025, 0.0049926, NaN, NaN, NaN, 0.0323506, "- N/A -   "
2.94, 104.03, 0.00508979, NaN, NaN, NaN, 0.0347922, "- N/A -   "
3, 105.681, 0.00517864, NaN, NaN, NaN, 0.0384545, "- N/A -   "
3.06, 107.45, 0.00527028, NaN, NaN, NaN, 0.04211683, "- N/A -   "
3.12, 109.3373, 0.00536746, NaN, NaN, NaN, 0.0433376, "- N/A -   "
3.18, 111.46, 0.00547298, NaN, NaN, NaN, 0.04211683, "- N/A -   "
3.24, 113.701, 0.0055896, NaN, NaN, NaN, 0.0335714, "- N/A -   "
3.3, 115.824, 0.00569234, NaN, NaN, NaN, 0.0323506, "- N/A -   "
3.36, 117.476, 0.00578953, NaN, NaN, NaN, 0.0335714, "- N/A -   "
3.42, 119.599, 0.00589227, NaN, NaN, NaN, 0.0323506, "- N/A -   "
3.48, 121.722, 0.005997784, NaN, NaN, NaN, 0.0299091, "- N/A -   "
3.54, 123.373, 0.00609497, NaN, NaN, NaN, 0.0335714, "- N/A -   "
3.6, 125.024, 0.00618938, NaN, NaN, NaN, 0.03601294, "- N/A -   "
3.66, 126.558, 0.00627546, NaN, NaN, NaN, 0.04089605, "- N/A -   "
3.72, 128.4448, 0.006367092, NaN, NaN, NaN, 0.04577916, "- N/A -   "
3.78, 130.214, 0.00646705, NaN, NaN, NaN, 0.0445584, "- N/A -   "
3.84, 132.337, 0.00657813, NaN, NaN, NaN, 0.04089605, "- N/A -   "
3.9, 134.342, 0.006683642, NaN, NaN, NaN, 0.0372337, "- N/A -   "
3.96, 136.229, 0.006786382, NaN, NaN, NaN, 0.0372337, "- N/A -   "
4.02, 138.47, 0.00689745, NaN, NaN, NaN, 0.03112983, "- N/A -   "
4.08, 140.24, 0.00700297, NaN, NaN, NaN, 0.0286883, "- N/A -   "
4.14, 142.1267, 0.00710015, NaN, NaN, NaN, 0.0299091, "- N/A -   "
4.2, 143.66, 0.007191787, NaN, NaN, NaN, 0.0335714, "- N/A -   "
4.26, 145.311, 0.007280643, NaN, NaN, NaN, 0.0384545, "- N/A -   "
4.32, 146.963, 0.007369499, NaN, NaN, NaN, 0.0433376, "- N/A -   "
4.38, 148.732, 0.00746946, NaN, NaN, NaN, 0.0445584, "- N/A -   "
4.44, 150.619, 0.007566649, NaN, NaN, NaN, 0.0445584, "- N/A -   "
4.5, 152.506, 0.007672165, NaN, NaN, NaN, 0.04211683, "- N/A -   "
4.56, 154.511, 0.007780459, NaN, NaN, NaN, 0.0396753, "- N/A -   "
4.62, 156.752, 0.007897083, NaN, NaN, NaN, 0.03112983, "- N/A -   "
[...]
24.27, 928.1926, 0.0406155, NaN, NaN, NaN, 0.04577916, "- N/A -   "
24.34, 931.741, 0.0407461, NaN, NaN, NaN, 0.0384545, "- N/A -   "
24.41, 934.8164, 0.0408655, NaN, NaN, NaN, 0.0372337, "- N/A -   "
24.48, 938.01, 0.04099041, NaN, NaN, NaN, 0.0335714, "- N/A -   "
24.55, 941.3218, 0.04111814, NaN, NaN, NaN, 0.0299091, "- N/A -   "
24.62, 944.2788, 0.04123476, NaN, NaN, NaN, 0.0286883, "- N/A -   "
24.69, 947.118, 0.04134583, NaN, NaN, NaN, 0.03112983, "- N/A -   "
24.76, 949.483, 0.0414402, NaN, NaN, NaN, 0.04089605, "- N/A -   "
24.83, 951.9671, 0.04154298, NaN, NaN, NaN, 0.04699994, "- N/A -   "
24.9, 955.279, 0.0416679, NaN, NaN, NaN, 0.0433376, "- N/A -   "
24.97, 958.473, 0.0417901, NaN, NaN, NaN, 0.04211683, "- N/A -   "
25.04, 961.7844, 0.0419151, NaN, NaN, NaN, 0.0372337, "- N/A -   "
25.11, 965.569, 0.04205668, NaN, NaN, NaN, 0.0262467, "- N/A -   "
25.18, 968.6447, 0.04217608, NaN, NaN, NaN, 0.0250259, "- N/A -   "
25.25, 971.2469, 0.0422816, NaN, NaN, NaN, 0.0299091, "- N/A -   "
25.32, 974.086, 0.0423927, NaN, NaN, NaN, 0.0335714, "- N/A -   "
25.39, 976.9244, 0.0425065, NaN, NaN, NaN, 0.0347922, "- N/A -   "
25.46, 979.881, 0.04261481, NaN, NaN, NaN, 0.0372337, "- N/A -   "
25.53, 982.6018, 0.0427203, NaN, NaN, NaN, 0.04211683, "- N/A -   "
25.6, 985.322, 0.0428314, NaN, NaN, NaN, 0.0445584, "- N/A -   "
25.67, 988.989, 0.0429675, NaN, NaN, NaN, 0.0372337, "- N/A -   "
25.74, 992.3009, 0.04309241, NaN, NaN, NaN, 0.0335714, "- N/A -   "
25.81, 995.1396, 0.04320626, NaN, NaN, NaN, 0.0347922, "- N/A -   "
25.88, 998.0966, 0.04331455, NaN, NaN, NaN, 0.0372337, "- N/A -   "
25.95, 1001.05, 0.04343673, NaN, NaN, NaN, 0.0347922, "- N/A -   "
26.02, 1004.37, 0.0435617, NaN, NaN, NaN, 0.0323506, "- N/A -   "
26.09, 1007.32, 0.0436755, NaN, NaN, NaN, 0.0323506, "- N/A -   "
26.16, 1009.69, 0.0437755, NaN, NaN, NaN, 0.0396753, "- N/A -   "
26.23, 1012.76, 0.0438893, NaN, NaN, NaN, 0.04211683, "- N/A -   "
26.3, 1016.1, 0.04401429, NaN, NaN, NaN, 0.0384545, "- N/A -   "
26.37, 1019.2, 0.04413369, NaN, NaN, NaN, 0.0384545, "- N/A -   "
26.44, 1022.18, 0.0442503, NaN, NaN, NaN, 0.0372337, "- N/A -   "
26.51, 1025.4, 0.04437527, NaN, NaN, NaN, 0.0335714, "- N/A -   "
26.58, 1028.74, 0.04449745, NaN, NaN, NaN, 0.03112983, "- N/A -   "
26.65, 1031.6, 0.04461129, NaN, NaN, NaN, 0.0335714, "- N/A -   "
26.72, 1034.47, 0.0447224, NaN, NaN, NaN, 0.0347922, "- N/A -   "
26.79, 1037.69, 0.0448418, NaN, NaN, NaN, 0.0335714, "- N/A -   "
26.86, 1040.428, 0.0449445, NaN, NaN, NaN, 0.0396753, "- N/A -   "
26.93, 1043.05, 0.0450528, NaN, NaN, NaN, 0.0433376, "- N/A -   "
27, 1046.03, 0.0451639, NaN, NaN, NaN, 0.04577916, "- N/A -   "
27.07, 1049.37, 0.04528882, NaN, NaN, NaN, 0.0433376, "- N/A -   "
27.14, 1053.07, 0.0454249, NaN, NaN, NaN, 0.0347922, "- N/A -   "
27.21, 1056.17, 0.0455415, NaN, NaN, NaN, 0.0335714, "- N/A -   "
27.28, 1059.03, 0.0456526, NaN, NaN, NaN, 0.03601294, "- N/A -   "
27.35, 1062.37, 0.04578031, NaN, NaN, NaN, 0.0323506, "- N/A -   "
27.42, 1065.35, 0.0458942, NaN, NaN, NaN, 0.0335714, "- N/A -   "
27.49, 1067.98, 0.04599967, NaN, NaN, NaN, 0.0372337, "- N/A -   "
27.56, 1070.6, 0.0461052, NaN, NaN, NaN, 0.0433376, "- N/A -   "
27.63, 1073.22, 0.0462079, NaN, NaN, NaN, 0.0482207, "- N/A -   "
27.7, 1077.04, 0.046344, NaN, NaN, NaN, 0.0396753, "- N/A -   "
27.77, 1080.38, 0.04646894, NaN, NaN, NaN, 0.03601294, "- N/A -   "
27.84, 1083.72, 0.0465967, NaN, NaN, NaN, 0.03112983, "- N/A -   "
27.91, 1086.94, 0.0467188, NaN, NaN, NaN, 0.0286883, "- N/A -   "
27.98, 1090.04, 0.0468382, NaN, NaN, NaN, 0.0274675, "- N/A -   "
28.042, 1092.66, 0.0469382, NaN, NaN, NaN, 0.0299091, "- N/A -   "

File: Hamel_ForceTest_Bolt10_Test5.csv
Time, Load (lb), Position (in), AxialStrain (in), TransverseStrain (in), Auxiliary (), Control Out (V), Stress (psi)
0.0, 1.41537, 0.0, NaN, NaN, NaN, 0.09094793, "- N/A -   "
0.01, 1.88716, 2.49908e-05, NaN, NaN, NaN, 0.09949338, "- N/A -   "
0.02, 2.35895, 5.27583e-05, NaN, NaN, NaN, 0.108039, "- N/A -   "
0.03, 2.94869, 7.774905E-5, NaN, NaN, NaN, 0.103156, "- N/A -   "
0.04, 3.53842, 0.000105517, NaN, NaN, NaN, 0.0982726, "- N/A -   "
0.05, 4.246109, 0.000133284, NaN, NaN, NaN, 0.09338949, "- N/A -   "
0.06, 4.59995, 1.610516E-4, NaN, NaN, NaN, 0.0897272, "- N/A -   "
0.07, 5.18969, 0.000183266, NaN, NaN, NaN, 0.0872856, "- N/A -   "
0.08, 5.66148, 0.000208256, NaN, NaN, NaN, 0.08362327, "- N/A -   "
0.09, 6.13327, 0.000233247, NaN, NaN, NaN, 0.0799609, "- N/A -   "
0.1, 6.723006, 2.582379E-4, NaN, NaN, NaN, 0.0762986, "- N/A -   "
0.11, 7.1948, 2.832287E-4, NaN, NaN, NaN, 0.07141549, "- N/A -   "
0.12, 7.666586, 0.000308219, NaN, NaN, NaN, 0.06775316, "- N/A -   "
0.13, 8.256323, 0.000335987, NaN, NaN, NaN, 0.0640908, "- N/A -   "
0.14, 8.846061, 0.000360978, NaN, NaN, NaN, 0.0592077, "- N/A -   "
0.15, 9.199903, 3.859685E-4, NaN, NaN, NaN, 0.05676616, "- N/A -   "
0.16, 9.671693, 4.081825E-4, NaN, NaN, NaN, 0.0543246, "- N/A -   "
0.17, 10.0255, 4.276198E-4, NaN, NaN, NaN, 0.05188305, "- N/A -   "
0.18, 10.4973, 0.000449834, NaN, NaN, NaN, 0.0494415, "- N/A -   "
0.19, 10.9691, 4.720478E-4, NaN, NaN, NaN, 0.0482207, "- N/A -   "
0.2, 11.323, 0.000491485, NaN, NaN, NaN, 0.04699994, "- N/A -   "
0.21, 11.7947, 0.000510922, NaN, NaN, NaN, 0.04577916, "- N/A -   "
0.22, 12.0306, 0.000527583, NaN, NaN, NaN, 0.0445584, "- N/A -   "
0.23, 12.3845, 5.442434E-4, NaN, NaN, NaN, 0.0445584, "- N/A -   "
0.24, 12.7383, 5.664574E-4, NaN, NaN, NaN, 0.0433376, "- N/A -   "
0.25, 13.2101, 5.858946E-4, NaN, NaN, NaN, 0.04089605, "- N/A -   "
0.26, 13.564, 6.053319E-4, NaN, NaN, NaN, 0.04089605, "- N/A -   "
0.27, 14.0357, 0.000624769, NaN, NaN, NaN, 0.0396753, "- N/A -   "
0.28, 14.3896, 6.442064E-4, NaN, NaN, NaN, 0.0372337, "- N/A -   "
0.29, 14.7434, 6.636437E-4, NaN, NaN, NaN, 0.03601294, "- N/A -   "
0.3, 15.2152, 6.858577E-4, NaN, NaN, NaN, 0.0335714, "- N/A -   "
0.31, 15.5691, 0.000705295, NaN, NaN, NaN, 0.0323506, "- N/A -   "
0.32, 15.9229, 7.219555E-4, NaN, NaN, NaN, 0.0323506, "- N/A -   "
0.33, 16.3947, 7.413927E-4, NaN, NaN, NaN, 0.03112983, "- N/A -   "
0.34, 16.6306, 7.6083E-4, NaN, NaN, NaN, 0.0299091, "- N/A -   "
0.35, 16.9844, 0.000780267, NaN, NaN, NaN, 0.0299091, "- N/A -   "
0.36, 17.3383, 0.000794151, NaN, NaN, NaN, 0.0299091, "- N/A -   "
0.37, 17.6921, 8.108115E-4, NaN, NaN, NaN, 0.0299091, "- N/A -   "
0.38, 17.928, 8.27472E-4, NaN, NaN, NaN, 0.03112983, "- N/A -   "
0.39, 18.3998, 8.413558E-4, NaN, NaN, NaN, 0.0323506, "- N/A -   "
0.4, 18.5178, 8.552396E-4, NaN, NaN, NaN, 0.0323506, "- N/A -   "
0.41, 18.8716, 0.0008719, NaN, NaN, NaN, 0.0323506, "- N/A -   "
0.46, 20.4049, 0.000949649, NaN, NaN, NaN, 0.0347922, "- N/A -   "
0.51, 21.7023, 0.00102184, NaN, NaN, NaN, 0.0396753, "- N/A -   "
0.56, 23.2357, 0.00109404, NaN, NaN, NaN, 0.0445584, "- N/A -   "
0.61, 24.769, 0.00117179, NaN, NaN, NaN, 0.04699994, "- N/A -   "
0.66, 26.5382, 0.00126065, NaN, NaN, NaN, 0.04577916, "- N/A -   "
0.71, 28.42534, 0.00135505, NaN, NaN, NaN, 0.0396753, "- N/A -   "
0.76, 30.3125, 0.00144669, NaN, NaN, NaN, 0.03601294, "- N/A -   "
0.81, 31.8458, 0.001532767, NaN, NaN, NaN, 0.0347922, "- N/A -   "
0.86, 33.61503, 0.00161885, NaN, NaN, NaN, 0.0347922, "- N/A -   "
0.91, 35.3842, 0.0017077, NaN, NaN, NaN, 0.03112983, "- N/A -   "
0.96, 36.9176, 0.001791, NaN, NaN, NaN, 0.03112983, "- N/A -   "
1.01, 38.68677, 0.00187708, NaN, NaN, NaN, 0.0299091, "- N/A -   "
1.06, 40.22009, 0.00195761, NaN, NaN, NaN, 0.03112983, "- N/A -   "
1.11, 41.6355, 0.00202981, NaN, NaN, NaN, 0.0372337, "- N/A -   "
1.16, 43.0508, 0.002102001, NaN, NaN, NaN, 0.04089605, "- N/A -   "
1.21, 44.58414, 0.00217975, NaN, NaN, NaN, 0.0445584, "- N/A -   "
1.26, 46.23541, 0.00226305, NaN, NaN, NaN, 0.0433376, "- N/A -   "
1.31, 47.7687, 0.00234358, NaN, NaN, NaN, 0.04577916, "- N/A -   "
1.36, 49.41999, 0.0024241, NaN, NaN, NaN, 0.04577916, "- N/A -   "
1.41, 51.1892, 0.00251574, NaN, NaN, NaN, 0.04211683, "- N/A -   "
1.46, 53.0764, 0.00261015, NaN, NaN, NaN, 0.0372337, "- N/A -   "
1.51, 54.9635, 0.002707333, NaN, NaN, NaN, 0.03112983, "- N/A -   "
1.56, 56.6148, 0.00279619, NaN, NaN, NaN, 0.0286883, "- N/A -   "
1.61, 58.26605, 0.00287949, NaN, NaN, NaN, 0.0299091, "- N/A -   "
1.66, 59.79937, 0.002954464, NaN, NaN, NaN, 0.0323506, "- N/A -   "
1.71, 61.3327, 0.00302944, NaN, NaN, NaN, 0.0372337, "- N/A -   "
1.76, 62.98395, 0.003112739, NaN, NaN, NaN, 0.03601294, "- N/A -   "
1.81, 64.6352, 0.00319326, NaN, NaN, NaN, 0.0372337, "- N/A -   "
1.86, 66.05058, 0.003268237, NaN, NaN, NaN, 0.04089605, "- N/A -   "
1.91, 67.5839, 0.00334876, NaN, NaN, NaN, 0.04211683, "- N/A -   "
1.96, 69.23517, 0.00342929, NaN, NaN, NaN, 0.0433376, "- N/A -   "
2.01, 70.7685, 0.00351259, NaN, NaN, NaN, 0.0433376, "- N/A -   "
2.06, 72.77359, 0.003607, NaN, NaN, NaN, 0.0384545, "- N/A -   "
2.11, 74.7787, 0.003704187, NaN, NaN, NaN, 0.0323506, "- N/A -   "
2.16, 76.6659, 0.00379582, NaN, NaN, NaN, 0.0286883, "- N/A -   "
2.21, 78.19917, 0.003873569, NaN, NaN, NaN, 0.03112983, "- N/A -   "
2.26, 79.61454, 0.003948541, NaN, NaN, NaN, 0.0347922, "- N/A -   "
2.31, 81.26581, 0.00403184, NaN, NaN, NaN, 0.0347922, "- N/A -   "
2.36, 83.03502, 0.0041207, NaN, NaN, NaN, 0.0335714, "- N/A -   "
2.41, 84.68629, 0.004204002, NaN, NaN, NaN, 0.0323506, "- N/A -   "
2.46, 86.33755, 0.004284528, NaN, NaN, NaN, 0.0347922, "- N/A -   "
2.51, 87.63497, 0.004353947, NaN, NaN, NaN, 0.0396753, "- N/A -   "
2.56, 89.16828, 0.004434473, NaN, NaN, NaN, 0.04211683, "- N/A -   "
2.61, 91.05545, 0.004515, NaN, NaN, NaN, 0.04211683, "- N/A -   "
2.66, 92.70671, 0.004601078, NaN, NaN, NaN, 0.04089605, "- N/A -   "
2.71, 94.47592, 0.004687157, NaN, NaN, NaN, 0.0396753, "- N/A -   "
2.76, 96.24514, 0.00477601, NaN, NaN, NaN, 0.0372337, "- N/A -   "
2.81, 97.8964, 0.004859315, NaN, NaN, NaN, 0.0372337, "- N/A -   "
2.86, 99.42972, 0.004942619, NaN, NaN, NaN, 0.0372337, "- N/A -   "
2.91, 101.199, 0.005028697, NaN, NaN, NaN, 0.03601294, "- N/A -   "
2.96, 102.968, 0.005123107, NaN, NaN, NaN, 0.0323506, "- N/A -   "
3.01, 104.619, 0.005203633, NaN, NaN, NaN, 0.0323506, "- N/A -   "
3.06, 106.035, 0.00528694, NaN, NaN, NaN, 0.0323506, "- N/A -   "
3.11, 107.804, 0.005370238, NaN, NaN, NaN, 0.0323506, "- N/A -   "
3.16, 109.219, 0.00545076, NaN, NaN, NaN, 0.0335714, "- N/A -   "
3.21, 110.753, 0.00553129, NaN, NaN, NaN, 0.0347922, "- N/A -   "
3.26, 112.168, 0.005609039, NaN, NaN, NaN, 0.0372337, "- N/A -   "
3.31, 113.819, 0.00569234, NaN, NaN, NaN, 0.0372337, "- N/A -   "
3.36, 115.117, 0.00576454, NaN, NaN, NaN, 0.04211683, "- N/A -   "
3.41, 116.768, 0.005845062, NaN, NaN, NaN, 0.0433376, "- N/A -   "
3.46, 118.419, 0.0059367, NaN, NaN, NaN, 0.04089605, "- N/A -   "
3.51, 120.306, 0.00603111, NaN, NaN, NaN, 0.03601294, "- N/A -   "
3.56, 122.076, 0.00612274, NaN, NaN, NaN, 0.0335714, "- N/A -   "
3.61, 123.491, 0.006203264, NaN, NaN, NaN, 0.0335714, "- N/A -   "
3.66, 125.142, 0.006281012, NaN, NaN, NaN, 0.03601294, "- N/A -   "
[...]
23.33, 889.16, 0.03905779, NaN, NaN, NaN, 0.0384545, "- N/A -   "
23.5, 896.8482, 0.03934935, NaN, NaN, NaN, 0.0347922, "- N/A -   "
23.67, 904.182, 0.0396381, NaN, NaN, NaN, 0.0323506, "- N/A -   "
23.84, 910.6871, 0.03989637, NaN, NaN, NaN, 0.0445584, "- N/A -   "
24.01, 919.085, 0.0402074, NaN, NaN, NaN, 0.03112983, "- N/A -   "
24.18, 926.3001, 0.0404934, NaN, NaN, NaN, 0.0299091, "- N/A -   "
24.35, 933.2787, 0.0407655, NaN, NaN, NaN, 0.0347922, "- N/A -   "
24.52, 940.021, 0.04102651, NaN, NaN, NaN, 0.0445584, "- N/A -   "
24.69, 947.709, 0.0413292, NaN, NaN, NaN, 0.03601294, "- N/A -   "
24.86, 955.3972, 0.0416291, NaN, NaN, NaN, 0.0286883, "- N/A -   "
25.03, 962.021, 0.0418929, NaN, NaN, NaN, 0.0372337, "- N/A -   "
25.2, 968.8813, 0.0421622, NaN, NaN, NaN, 0.0445584, "- N/A -   "
25.37, 977.2792, 0.0424843, NaN, NaN, NaN, 0.0274675, "- N/A -   "
25.54, 984.2578, 0.0427564, NaN, NaN, NaN, 0.0323506, "- N/A -   "
25.71, 991.2363, 0.04302855, NaN, NaN, NaN, 0.03601294, "- N/A -   "
25.88, 998.0966, 0.04330067, NaN, NaN, NaN, 0.04211683, "- N/A -   "
26.05, 1005.9, 0.04360056, NaN, NaN, NaN, 0.0335714, "- N/A -   "
26.22, 1012.88, 0.0438727, NaN, NaN, NaN, 0.0396753, "- N/A -   "
26.39, 1020.27, 0.04416146, NaN, NaN, NaN, 0.0372337, "- N/A -   "
26.56, 1027.55, 0.0444391, NaN, NaN, NaN, 0.0396753, "- N/A -   "
26.73, 1035.18, 0.04473625, NaN, NaN, NaN, 0.0335714, "- N/A -   "
26.9, 1042.34, 0.0450139, NaN, NaN, NaN, 0.03601294, "- N/A -   "
27.07, 1049.73, 0.0453027, NaN, NaN, NaN, 0.0335714, "- N/A -   "
27.24, 1056.41, 0.0455665, NaN, NaN, NaN, 0.0433376, "- N/A -   "
27.41, 1064.28, 0.0458608, NaN, NaN, NaN, 0.0372337, "- N/A -   "
27.58, 1071.672, 0.0461468, NaN, NaN, NaN, 0.03601294, "- N/A -   "
27.75, 1079.07, 0.04643562, NaN, NaN, NaN, 0.0335714, "- N/A -   "
27.92, 1085.27, 0.0466828, NaN, NaN, NaN, 0.0494415, "- N/A -   "
28.09, 1093.85, 0.04700763, NaN, NaN, NaN, 0.0323506, "- N/A -   "
28.26, 1101.25, 0.0472964, NaN, NaN, NaN, 0.0299091, "- N/A -   "
28.43, 1107.92, 0.04755743, NaN, NaN, NaN, 0.0384545, "- N/A -   "
28.6, 1114.96, 0.0478268, NaN, NaN, NaN, 0.0445584, "- N/A -   "
28.77, 1123.19, 0.04813777, NaN, NaN, NaN, 0.0323506, "- N/A -   "
28.94, 1130.344, 0.0484182, NaN, NaN, NaN, 0.0335714, "- N/A -   "
29.11, 1137.62, 0.0486959, NaN, NaN, NaN, 0.03601294, "- N/A -   "
29.28, 1144.3, 0.0489569, NaN, NaN, NaN, 0.04577916, "- N/A -   "
29.45, 1152.88, 0.04928179, NaN, NaN, NaN, 0.0274675, "- N/A -   "
29.62, 1159.68, 0.04954836, NaN, NaN, NaN, 0.0347922, "- N/A -   "
29.79, 1167.19, 0.0498316, NaN, NaN, NaN, 0.0347922, "- N/A -   "
29.96, 1173.99, 0.0501009, NaN, NaN, NaN, 0.04089605, "- N/A -   "
30.13, 1181.62, 0.0503925, NaN, NaN, NaN, 0.0372337, "- N/A -   "
30.3, 1189.37, 0.05068683, NaN, NaN, NaN, 0.0335714, "- N/A -   "
30.47, 1196.53, 0.0509701, NaN, NaN, NaN, 0.0323506, "- N/A -   "
30.64, 1203.21, 0.05123107, NaN, NaN, NaN, 0.04211683, "- N/A -   "
30.81, 1211.32, 0.0515337, NaN, NaN, NaN, 0.03601294, "- N/A -   "
30.98, 1218.829, 0.0518281, NaN, NaN, NaN, 0.0299091, "- N/A -   "
31.15, 1226.1, 0.0521113, NaN, NaN, NaN, 0.0299091, "- N/A -   "
31.32, 1231.95, 0.05234733, NaN, NaN, NaN, 0.05066227, "- N/A -   "
31.49, 1240.175, 0.0526611, NaN, NaN, NaN, 0.0384545, "- N/A -   "
31.66, 1248.05, 0.0529665, NaN, NaN, NaN, 0.0274675, "- N/A -   "
31.83, 1254.843, 0.05323589, NaN, NaN, NaN, 0.0347922, "- N/A -   "
32, 1261.521, 0.05349968, NaN, NaN, NaN, 0.04211683, "- N/A -   "
32.17, 1269.39, 0.0538023, NaN, NaN, NaN, 0.0335714, "- N/A -   "
32.238, 1272.61, 0.0539273, NaN, NaN, NaN, 0.0286883, "- N/A -   "