Folder: DigitalTwins-Machine-Learning/2_Tensile_Data (part 9)

File: Hamel_ForceTest_Bolt4_Test4.csv
Time, Load (lb), Position (in), AxialStrain (in), TransverseStrain (in), Auxiliary (), Control Out (V), Stress (psi)
0.0, 1.29742, 0.0, NaN, NaN, NaN, 0.09338949, "- N/A -   "
0.01, 1.76921, 3.054427E-5, NaN, NaN, NaN, 0.09949338, "- N/A -   "
0.02, 2.12305, 5.83118e-05, NaN, NaN, NaN, 0.0982726, "- N/A -   "
0.03, 2.59484, 8.885606E-5, NaN, NaN, NaN, 0.09216871, "- N/A -   "
0.04, 3.06663, 0.000116624, NaN, NaN, NaN, 0.0872856, "- N/A -   "
0.05, 3.53842, 1.388376E-4, NaN, NaN, NaN, 0.084844, "- N/A -   "
0.06, 3.89227, 0.000163828, NaN, NaN, NaN, 0.08118171, "- N/A -   "
0.07, 4.246109, 0.000186042, NaN, NaN, NaN, 0.07874016, "- N/A -   "
0.08, 4.59995, 0.000208256, NaN, NaN, NaN, 0.07751938, "- N/A -   "
0.09, 4.953794, 0.000227694, NaN, NaN, NaN, 0.0750778, "- N/A -   "
0.1, 5.307636, 2.471309E-4, NaN, NaN, NaN, 0.07385705, "- N/A -   "
0.11, 5.66148, 0.000266568, NaN, NaN, NaN, 0.07263627, "- N/A -   "
0.12, 5.897373, 0.000286005, NaN, NaN, NaN, 0.07141549, "- N/A -   "
0.13, 6.369163, 0.000308219, NaN, NaN, NaN, 0.0689739, "- N/A -   "
0.14, 6.60506, 0.000327657, NaN, NaN, NaN, 0.06775316, "- N/A -   "
0.15, 6.9589, 0.000347094, NaN, NaN, NaN, 0.06653238, "- N/A -   "
0.16, 7.312743, 0.000366531, NaN, NaN, NaN, 0.0653116, "- N/A -   "
0.17, 7.666586, 0.000388745, NaN, NaN, NaN, 0.06287005, "- N/A -   "
0.18, 8.020428, 4.081825E-4, NaN, NaN, NaN, 0.06164927, "- N/A -   "
0.19, 8.256323, 0.000430397, NaN, NaN, NaN, 0.0592077, "- N/A -   "
0.2, 8.728113, 0.000452611, NaN, NaN, NaN, 0.05676616, "- N/A -   "
0.21, 9.199903, 0.000474825, NaN, NaN, NaN, 0.0543246, "- N/A -   "
0.22, 9.435798, 4.942618E-4, NaN, NaN, NaN, 0.0531038, "- N/A -   "
0.23, 9.78964, 5.164758E-4, NaN, NaN, NaN, 0.05066227, "- N/A -   "
0.24, 10.1435, 5.359131E-4, NaN, NaN, NaN, 0.0494415, "- N/A -   "
0.25, 10.4973, 5.553504E-4, NaN, NaN, NaN, 0.0494415, "- N/A -   "
0.26, 10.73322, 5.747876E-4, NaN, NaN, NaN, 0.04699994, "- N/A -   "
0.27, 11.0871, 5.942249E-4, NaN, NaN, NaN, 0.04699994, "- N/A -   "
0.28, 11.5589, 6.108854E-4, NaN, NaN, NaN, 0.04577916, "- N/A -   "
0.29, 11.7947, 0.000630323, NaN, NaN, NaN, 0.0445584, "- N/A -   "
0.3, 12.14859, 6.497599E-4, NaN, NaN, NaN, 0.0433376, "- N/A -   "
0.31, 12.5024, 6.691972E-4, NaN, NaN, NaN, 0.04211683, "- N/A -   "
0.32, 12.8563, 0.000688634, NaN, NaN, NaN, 0.04089605, "- N/A -   "
0.33, 13.2101, 7.080717E-4, NaN, NaN, NaN, 0.0396753, "- N/A -   "
0.34, 13.446, 7.27509E-4, NaN, NaN, NaN, 0.0384545, "- N/A -   "
0.35, 13.7999, 7.49723E-4, NaN, NaN, NaN, 0.03601294, "- N/A -   "
0.36, 14.2716, 7.691603E-4, NaN, NaN, NaN, 0.0347922, "- N/A -   "
0.37, 14.5075, 0.000791374, NaN, NaN, NaN, 0.0323506, "- N/A -   "
0.38, 14.9793, 8.108115E-4, NaN, NaN, NaN, 0.03112983, "- N/A -   "
0.39, 15.3332, 8.302488E-4, NaN, NaN, NaN, 0.0299091, "- N/A -   "
0.4, 15.687, 0.000849686, NaN, NaN, NaN, 0.0286883, "- N/A -   "
0.409, 15.805, 8.663466E-4, NaN, NaN, NaN, 0.0286883, "- N/A -   "
0.42, 16.1588, 8.830071E-4, NaN, NaN, NaN, 0.0286883, "- N/A -   "
0.43, 16.5126, 0.000899668, NaN, NaN, NaN, 0.0286883, "- N/A -   "
0.44, 16.86649, 0.000919105, NaN, NaN, NaN, 0.0286883, "- N/A -   "
0.45, 17.1024, 9.329886E-4, NaN, NaN, NaN, 0.0286883, "- N/A -   "
0.46, 17.3383, 0.000949649, NaN, NaN, NaN, 0.0299091, "- N/A -   "
0.47, 17.5742, 9.635329E-4, NaN, NaN, NaN, 0.0299091, "- N/A -   "
0.48, 17.928, 9.801934E-4, NaN, NaN, NaN, 0.0299091, "- N/A -   "
0.49, 18.16391, 9.968539E-4, NaN, NaN, NaN, 0.0299091, "- N/A -   "
0.53, 19.4613, 0.00106072, NaN, NaN, NaN, 0.03112983, "- N/A -   "
0.57, 20.52286, 0.00112181, NaN, NaN, NaN, 0.0335714, "- N/A -   "
0.61, 21.5844, 0.00118012, NaN, NaN, NaN, 0.0372337, "- N/A -   "
0.65, 22.6459, 0.001241208, NaN, NaN, NaN, 0.0396753, "- N/A -   "
0.69, 23.7074, 0.00129952, NaN, NaN, NaN, 0.0433376, "- N/A -   "
0.73, 24.769, 0.00136061, NaN, NaN, NaN, 0.04577916, "- N/A -   "
0.77, 25.9484, 0.00142725, NaN, NaN, NaN, 0.04577916, "- N/A -   "
0.81, 27.1279, 0.00148834, NaN, NaN, NaN, 0.0482207, "- N/A -   "
0.85, 28.42534, 0.00155776, NaN, NaN, NaN, 0.04699994, "- N/A -   "
0.89, 29.84071, 0.00163273, NaN, NaN, NaN, 0.0433376, "- N/A -   "
0.929, 31.2561, 0.00171326, NaN, NaN, NaN, 0.0372337, "- N/A -   "
0.97, 32.7894, 0.001791, NaN, NaN, NaN, 0.0323506, "- N/A -   "
1.01, 34.2048, 0.00186875, NaN, NaN, NaN, 0.0274675, "- N/A -   "
1.05, 35.2663, 0.00193262, NaN, NaN, NaN, 0.0286883, "- N/A -   "
1.09, 36.44577, 0.00199648, NaN, NaN, NaN, 0.0299091, "- N/A -   "
1.13, 37.6252, 0.00206035, NaN, NaN, NaN, 0.0323506, "- N/A -   "
1.17, 38.68677, 0.00212144, NaN, NaN, NaN, 0.0335714, "- N/A -   "
1.21, 39.98419, 0.00217975, NaN, NaN, NaN, 0.0372337, "- N/A -   "
1.25, 41.16367, 0.002249169, NaN, NaN, NaN, 0.03601294, "- N/A -   "
1.29, 42.4611, 0.00231859, NaN, NaN, NaN, 0.0347922, "- N/A -   "
1.33, 43.5226, 0.00237968, NaN, NaN, NaN, 0.0372337, "- N/A -   "
1.37, 44.58414, 0.00243521, NaN, NaN, NaN, 0.04211683, "- N/A -   "
1.41, 45.6457, 0.0024963, NaN, NaN, NaN, 0.0445584, "- N/A -   "
1.45, 46.8251, 0.002562942, NaN, NaN, NaN, 0.0445584, "- N/A -   "
1.49, 48.00462, 0.00262681, NaN, NaN, NaN, 0.04577916, "- N/A -   "
1.53, 49.41999, 0.00270178, NaN, NaN, NaN, 0.04211683, "- N/A -   "
1.57, 50.83536, 0.00278231, NaN, NaN, NaN, 0.03601294, "- N/A -   "
1.61, 52.25073, 0.00286005, NaN, NaN, NaN, 0.0323506, "- N/A -   "
1.65, 53.19431, 0.00293225, NaN, NaN, NaN, 0.0286883, "- N/A -   "
1.69, 54.4917, 0.002998892, NaN, NaN, NaN, 0.0299091, "- N/A -   "
1.73, 55.3174, 0.003057204, NaN, NaN, NaN, 0.0323506, "- N/A -   "
1.77, 56.37889, 0.00311829, NaN, NaN, NaN, 0.0347922, "- N/A -   "
1.81, 57.44042, 0.00318493, NaN, NaN, NaN, 0.0347922, "- N/A -   "
1.85, 58.6199, 0.00325158, NaN, NaN, NaN, 0.0347922, "- N/A -   "
1.89, 59.5635, 0.003321, NaN, NaN, NaN, 0.0335714, "- N/A -   "
1.93, 60.625, 0.00338486, NaN, NaN, NaN, 0.0347922, "- N/A -   "
1.97, 61.6865, 0.00344595, NaN, NaN, NaN, 0.0372337, "- N/A -   "
2.01, 62.6301, 0.00351259, NaN, NaN, NaN, 0.0372337, "- N/A -   "
2.05, 63.45574, 0.0035709, NaN, NaN, NaN, 0.04089605, "- N/A -   "
2.09, 64.5173, 0.00363477, NaN, NaN, NaN, 0.04211683, "- N/A -   "
2.13, 65.69674, 0.003704187, NaN, NaN, NaN, 0.04089605, "- N/A -   "
2.17, 66.64032, 0.00376805, NaN, NaN, NaN, 0.04211683, "- N/A -   "
2.21, 67.70185, 0.003837471, NaN, NaN, NaN, 0.04089605, "- N/A -   "
2.25, 68.8813, 0.00390967, NaN, NaN, NaN, 0.0384545, "- N/A -   "
2.29, 70.0608, 0.003981862, NaN, NaN, NaN, 0.03601294, "- N/A -   "
2.33, 71.24027, 0.004048504, NaN, NaN, NaN, 0.03601294, "- N/A -   "
2.37, 72.1838, 0.004117923, NaN, NaN, NaN, 0.0347922, "- N/A -   "
2.41, 73.2454, 0.004184565, NaN, NaN, NaN, 0.0347922, "- N/A -   "
2.45, 74.42485, 0.004253984, NaN, NaN, NaN, 0.0335714, "- N/A -   "
2.49, 75.48638, 0.004323403, NaN, NaN, NaN, 0.0323506, "- N/A -   "
2.53, 76.5479, 0.00439004, NaN, NaN, NaN, 0.0323506, "- N/A -   "
2.57, 77.49149, 0.00445113, NaN, NaN, NaN, 0.0347922, "- N/A -   "
2.61, 78.67096, 0.00451778, NaN, NaN, NaN, 0.0347922, "- N/A -   "
2.65, 79.85043, 0.00459275, NaN, NaN, NaN, 0.0323506, "- N/A -   "
2.69, 80.912, 0.004656613, NaN, NaN, NaN, 0.0323506, "- N/A -   "
2.73, 81.97349, 0.00471492, NaN, NaN, NaN, 0.03601294, "- N/A -   "
2.77, 82.79912, 0.00477324, NaN, NaN, NaN, 0.0396753, "- N/A -   "
[...]
24.96, 912.4613, 0.0417846, NaN, NaN, NaN, 0.0274675, "- N/A -   "
25.04, 915.655, 0.04190396, NaN, NaN, NaN, 0.0335714, "- N/A -   "
25.12, 918.848, 0.0420317, NaN, NaN, NaN, 0.03601294, "- N/A -   "
25.2, 922.3969, 0.042165, NaN, NaN, NaN, 0.03601294, "- N/A -   "
25.28, 925.3539, 0.0422816, NaN, NaN, NaN, 0.0433376, "- N/A -   "
25.36, 928.784, 0.0424093, NaN, NaN, NaN, 0.04577916, "- N/A -   "
25.44, 932.6873, 0.0425565, NaN, NaN, NaN, 0.0396753, "- N/A -   "
25.52, 936.8271, 0.04270922, NaN, NaN, NaN, 0.03112983, "- N/A -   "
25.6, 940.021, 0.0428342, NaN, NaN, NaN, 0.0347922, "- N/A -   "
25.68, 943.3326, 0.0429619, NaN, NaN, NaN, 0.0372337, "- N/A -   "
25.76, 947.236, 0.0431063, NaN, NaN, NaN, 0.0323506, "- N/A -   "
25.84, 950.7843, 0.04323958, NaN, NaN, NaN, 0.0323506, "- N/A -   "
25.92, 953.741, 0.0433562, NaN, NaN, NaN, 0.0396753, "- N/A -   "
26, 957.29, 0.04349226, NaN, NaN, NaN, 0.0384545, "- N/A -   "
26.08, 960.9565, 0.0436283, NaN, NaN, NaN, 0.0372337, "- N/A -   "
26.16, 964.5049, 0.0437616, NaN, NaN, NaN, 0.0384545, "- N/A -   "
26.24, 968.0533, 0.04389767, NaN, NaN, NaN, 0.0372337, "- N/A -   "
26.32, 971.72, 0.0440393, NaN, NaN, NaN, 0.0335714, "- N/A -   "
26.4, 975.15, 0.0441698, NaN, NaN, NaN, 0.0347922, "- N/A -   "
26.48, 978.817, 0.0443059, NaN, NaN, NaN, 0.0335714, "- N/A -   "
26.56, 982.4836, 0.0444447, NaN, NaN, NaN, 0.03112983, "- N/A -   "
26.64, 985.6771, 0.0445669, NaN, NaN, NaN, 0.03601294, "- N/A -   "
26.72, 988.752, 0.0446863, NaN, NaN, NaN, 0.04211683, "- N/A -   "
26.8, 991.946, 0.04480844, NaN, NaN, NaN, 0.04699994, "- N/A -   "
26.88, 995.8493, 0.04495561, NaN, NaN, NaN, 0.04089605, "- N/A -   "
26.96, 999.3977, 0.0450889, NaN, NaN, NaN, 0.04089605, "- N/A -   "
27.04, 1003.3, 0.04523051, NaN, NaN, NaN, 0.0372337, "- N/A -   "
27.12, 1007.32, 0.04538323, NaN, NaN, NaN, 0.0286883, "- N/A -   "
27.2, 1010.75, 0.0455137, NaN, NaN, NaN, 0.0299091, "- N/A -   "
27.28, 1013.954, 0.0456331, NaN, NaN, NaN, 0.03601294, "- N/A -   "
27.36, 1016.94, 0.045747, NaN, NaN, NaN, 0.0445584, "- N/A -   "
27.44, 1020.39, 0.04587749, NaN, NaN, NaN, 0.04699994, "- N/A -   "
27.52, 1024.45, 0.0460274, NaN, NaN, NaN, 0.0384545, "- N/A -   "
27.6, 1028.38, 0.04617183, NaN, NaN, NaN, 0.0335714, "- N/A -   "
27.68, 1032.2, 0.0463134, NaN, NaN, NaN, 0.0299091, "- N/A -   "
27.76, 1035.9, 0.0464495, NaN, NaN, NaN, 0.0286883, "- N/A -   "
27.84, 1039.24, 0.0465772, NaN, NaN, NaN, 0.03112983, "- N/A -   "
27.92, 1042.22, 0.0466911, NaN, NaN, NaN, 0.0396753, "- N/A -   "
28, 1045.32, 0.04681326, NaN, NaN, NaN, 0.0445584, "- N/A -   "
28.08, 1048.89, 0.0469438, NaN, NaN, NaN, 0.04577916, "- N/A -   "
28.16, 1052.71, 0.0470826, NaN, NaN, NaN, 0.0433376, "- N/A -   "
28.24, 1056.77, 0.0472353, NaN, NaN, NaN, 0.0347922, "- N/A -   "
28.32, 1060.7, 0.0473797, NaN, NaN, NaN, 0.0299091, "- N/A -   "
28.4, 1064.04, 0.0475074, NaN, NaN, NaN, 0.0323506, "- N/A -   "
28.48, 1067.62, 0.0476352, NaN, NaN, NaN, 0.0347922, "- N/A -   "
28.56, 1070.718, 0.0477574, NaN, NaN, NaN, 0.0396753, "- N/A -   "
28.64, 1074.18, 0.04788786, NaN, NaN, NaN, 0.04089605, "- N/A -   "
28.72, 1077.75, 0.04801559, NaN, NaN, NaN, 0.0433376, "- N/A -   "
28.8, 1081.33, 0.04815165, NaN, NaN, NaN, 0.04211683, "- N/A -   "
28.88, 1085.62, 0.0483099, NaN, NaN, NaN, 0.03112983, "- N/A -   "
28.96, 1089.32, 0.0484488, NaN, NaN, NaN, 0.0286883, "- N/A -   "
29.04, 1092.42, 0.0485682, NaN, NaN, NaN, 0.0347922, "- N/A -   "
29.12, 1096.12, 0.0487014, NaN, NaN, NaN, 0.0347922, "- N/A -   "
29.2, 1099.93, 0.0488403, NaN, NaN, NaN, 0.0323506, "- N/A -   "
29.251, 1101.96, 0.0489208, NaN, NaN, NaN, 0.0347922, "- N/A -   "

File: Hamel_ForceTest_Bolt4_Test5.csv
Time, Load (lb), Position (in), AxialStrain (in), TransverseStrain (in), Auxiliary (), Control Out (V), Stress (psi)
0.0, 1.17947, 0.0, NaN, NaN, NaN, 0.0872856, "- N/A -   "
0.01, 1.65126, 2.49908e-05, NaN, NaN, NaN, 0.095831, "- N/A -   "
0.02, 2.35895, 5.5535e-05, NaN, NaN, NaN, 0.101935, "- N/A -   "
0.03, 2.83074, 8.607931E-5, NaN, NaN, NaN, 0.09705182, "- N/A -   "
0.04, 3.42048, 0.000116624, NaN, NaN, NaN, 0.09094793, "- N/A -   "
0.05, 4.010214, 0.000147168, NaN, NaN, NaN, 0.084844, "- N/A -   "
0.06, 4.59995, 0.000177712, NaN, NaN, NaN, 0.0799609, "- N/A -   "
0.07, 5.071741, 0.000202703, NaN, NaN, NaN, 0.0750778, "- N/A -   "
0.08, 5.425584, 0.000227694, NaN, NaN, NaN, 0.07141549, "- N/A -   "
0.09, 6.01532, 2.526844E-4, NaN, NaN, NaN, 0.06775316, "- N/A -   "
0.1, 6.369163, 2.776752E-4, NaN, NaN, NaN, 0.0653116, "- N/A -   "
0.11, 6.84095, 2.998892E-4, NaN, NaN, NaN, 0.06164927, "- N/A -   "
0.12, 7.312743, 3.221032E-4, NaN, NaN, NaN, 0.0592077, "- N/A -   "
0.13, 7.666586, 0.000344317, NaN, NaN, NaN, 0.05676616, "- N/A -   "
0.14, 8.138375, 3.69308E-4, NaN, NaN, NaN, 0.0543246, "- N/A -   "
0.15, 8.492218, 0.000394299, NaN, NaN, NaN, 0.05066227, "- N/A -   "
0.16, 8.964007, 4.13736E-4, NaN, NaN, NaN, 0.0482207, "- N/A -   "
0.17, 9.435798, 0.00043595, NaN, NaN, NaN, 0.04577916, "- N/A -   "
0.18, 9.907588, 0.000458164, NaN, NaN, NaN, 0.0433376, "- N/A -   "
0.19, 10.26143, 0.000480378, NaN, NaN, NaN, 0.04089605, "- N/A -   "
0.2, 10.6153, 0.000499815, NaN, NaN, NaN, 0.0396753, "- N/A -   "
0.21, 10.9691, 5.164758E-4, NaN, NaN, NaN, 0.0396753, "- N/A -   "
0.22, 11.323, 5.359131E-4, NaN, NaN, NaN, 0.0384545, "- N/A -   "
0.23, 11.6768, 5.525736E-4, NaN, NaN, NaN, 0.0384545, "- N/A -   "
0.27, 12.7383, 0.000619216, NaN, NaN, NaN, 0.0396753, "- N/A -   "
0.31, 14.0357, 0.000677527, NaN, NaN, NaN, 0.04211683, "- N/A -   "
0.35, 15.0973, 7.413927E-4, NaN, NaN, NaN, 0.0433376, "- N/A -   "
0.39, 16.27675, 7.997045E-4, NaN, NaN, NaN, 0.04699994, "- N/A -   "
0.43, 17.4562, 8.663466E-4, NaN, NaN, NaN, 0.0482207, "- N/A -   "
0.47, 18.8716, 9.385421E-4, NaN, NaN, NaN, 0.04577916, "- N/A -   "
0.51, 20.287, 0.00101351, NaN, NaN, NaN, 0.04089605, "- N/A -   "
0.55, 21.7023, 0.00108849, NaN, NaN, NaN, 0.0384545, "- N/A -   "
0.59, 22.9998, 0.00115791, NaN, NaN, NaN, 0.03601294, "- N/A -   "
0.63, 24.29718, 0.00122455, NaN, NaN, NaN, 0.03601294, "- N/A -   "
0.67, 25.5946, 0.00129952, NaN, NaN, NaN, 0.0323506, "- N/A -   "
0.71, 26.892, 0.00137449, NaN, NaN, NaN, 0.0286883, "- N/A -   "
0.75, 28.1894, 0.00144113, NaN, NaN, NaN, 0.0286883, "- N/A -   "
0.79, 29.251, 0.001505, NaN, NaN, NaN, 0.0299091, "- N/A -   "
0.83, 30.3125, 0.00157164, NaN, NaN, NaN, 0.0299091, "- N/A -   "
0.87, 31.374, 0.00163273, NaN, NaN, NaN, 0.0323506, "- N/A -   "
0.91, 32.1997, 0.00168827, NaN, NaN, NaN, 0.0372337, "- N/A -   "
0.95, 33.2612, 0.00174658, NaN, NaN, NaN, 0.04089605, "- N/A -   "
0.99, 34.2048, 0.00180489, NaN, NaN, NaN, 0.0445584, "- N/A -   "
1.03, 35.2663, 0.00187153, NaN, NaN, NaN, 0.0445584, "- N/A -   "
1.07, 36.32782, 0.001935396, NaN, NaN, NaN, 0.04577916, "- N/A -   "
1.11, 37.5073, 0.00200481, NaN, NaN, NaN, 0.0445584, "- N/A -   "
1.15, 38.5688, 0.00207423, NaN, NaN, NaN, 0.0433376, "- N/A -   "
1.19, 39.5124, 0.00214365, NaN, NaN, NaN, 0.04211683, "- N/A -   "
1.23, 40.8098, 0.0022214, NaN, NaN, NaN, 0.0384545, "- N/A -   "
1.27, 42.1072, 0.00229915, NaN, NaN, NaN, 0.0323506, "- N/A -   "
1.31, 43.0508, 0.002371346, NaN, NaN, NaN, 0.0299091, "- N/A -   "
1.35, 43.9944, 0.002440765, NaN, NaN, NaN, 0.0286883, "- N/A -   "
1.39, 44.93799, 0.00250463, NaN, NaN, NaN, 0.03112983, "- N/A -   "
1.43, 45.8816, 0.0025685, NaN, NaN, NaN, 0.03112983, "- N/A -   "
1.47, 46.9431, 0.00262958, NaN, NaN, NaN, 0.0335714, "- N/A -   "
1.51, 47.65078, 0.00269067, NaN, NaN, NaN, 0.03601294, "- N/A -   "
1.55, 48.59436, 0.00275454, NaN, NaN, NaN, 0.0384545, "- N/A -   "
1.59, 49.6559, 0.00282118, NaN, NaN, NaN, 0.0372337, "- N/A -   "
1.63, 50.7174, 0.002887822, NaN, NaN, NaN, 0.0372337, "- N/A -   "
1.67, 51.66099, 0.002943357, NaN, NaN, NaN, 0.04211683, "- N/A -   "
1.71, 52.48662, 0.00300722, NaN, NaN, NaN, 0.0433376, "- N/A -   "
1.75, 53.6661, 0.00307109, NaN, NaN, NaN, 0.0445584, "- N/A -   "
1.79, 54.7276, 0.00313773, NaN, NaN, NaN, 0.0445584, "- N/A -   "
1.83, 56.02505, 0.00321548, NaN, NaN, NaN, 0.04089605, "- N/A -   "
1.87, 57.44042, 0.00329323, NaN, NaN, NaN, 0.0347922, "- N/A -   "
1.91, 58.5019, 0.00336542, NaN, NaN, NaN, 0.0323506, "- N/A -   "
1.95, 59.79937, 0.0034404, NaN, NaN, NaN, 0.0299091, "- N/A -   "
1.99, 60.8609, 0.00350704, NaN, NaN, NaN, 0.0299091, "- N/A -   "
2.03, 61.8045, 0.00356535, NaN, NaN, NaN, 0.0323506, "- N/A -   "
2.07, 62.98395, 0.00363199, NaN, NaN, NaN, 0.0323506, "- N/A -   "
2.11, 64.04548, 0.00369308, NaN, NaN, NaN, 0.0347922, "- N/A -   "
2.15, 65.22495, 0.0037625, NaN, NaN, NaN, 0.0335714, "- N/A -   "
2.19, 66.2865, 0.00383469, NaN, NaN, NaN, 0.0323506, "- N/A -   "
2.23, 67.5839, 0.00389856, NaN, NaN, NaN, 0.0323506, "- N/A -   "
2.27, 68.52748, 0.00395687, NaN, NaN, NaN, 0.03601294, "- N/A -   "
2.31, 69.589, 0.004015183, NaN, NaN, NaN, 0.0396753, "- N/A -   "
2.35, 70.5326, 0.004073495, NaN, NaN, NaN, 0.0433376, "- N/A -   "
2.39, 71.83001, 0.00414291, NaN, NaN, NaN, 0.04211683, "- N/A -   "
2.43, 73.00948, 0.004215109, NaN, NaN, NaN, 0.0396753, "- N/A -   "
2.47, 74.189, 0.00428175, NaN, NaN, NaN, 0.04089605, "- N/A -   "
2.51, 75.36844, 0.004345617, NaN, NaN, NaN, 0.04089605, "- N/A -   "
2.55, 76.5479, 0.00441781, NaN, NaN, NaN, 0.0384545, "- N/A -   "
2.59, 78.08122, 0.00449278, NaN, NaN, NaN, 0.0347922, "- N/A -   "
2.63, 79.14275, 0.00455943, NaN, NaN, NaN, 0.0347922, "- N/A -   "
2.67, 80.20428, 0.004620515, NaN, NaN, NaN, 0.0372337, "- N/A -   "
2.71, 81.5017, 0.00468993, NaN, NaN, NaN, 0.03601294, "- N/A -   "
2.75, 82.79912, 0.00476213, NaN, NaN, NaN, 0.0335714, "- N/A -   "
2.79, 83.9786, 0.00483155, NaN, NaN, NaN, 0.0323506, "- N/A -   "
2.83, 85.276, 0.00489819, NaN, NaN, NaN, 0.0323506, "- N/A -   "
2.87, 86.4555, 0.00496206, NaN, NaN, NaN, 0.0335714, "- N/A -   "
2.91, 87.51702, 0.005025921, NaN, NaN, NaN, 0.0347922, "- N/A -   "
2.95, 88.9324, 0.00509534, NaN, NaN, NaN, 0.0335714, "- N/A -   "
2.99, 90.11186, 0.00516476, NaN, NaN, NaN, 0.0335714, "- N/A -   "
3.03, 91.1734, 0.005225847, NaN, NaN, NaN, 0.0347922, "- N/A -   "
3.07, 92.23492, 0.00528694, NaN, NaN, NaN, 0.0384545, "- N/A -   "
3.11, 93.41439, 0.00534802, NaN, NaN, NaN, 0.0396753, "- N/A -   "
3.15, 94.7118, 0.00540911, NaN, NaN, NaN, 0.04211683, "- N/A -   "
3.19, 95.7733, 0.0054702, NaN, NaN, NaN, 0.0445584, "- N/A -   "
3.23, 97.07077, 0.00553962, NaN, NaN, NaN, 0.0445584, "- N/A -   "
3.27, 98.4861, 0.00560904, NaN, NaN, NaN, 0.04211683, "- N/A -   "
3.31, 99.7836, 0.00568956, NaN, NaN, NaN, 0.03601294, "- N/A -   "
3.35, 101.317, 0.00576454, NaN, NaN, NaN, 0.0323506, "- N/A -   "
3.39, 102.3784, 0.005828402, NaN, NaN, NaN, 0.0335714, "- N/A -   "
3.43, 103.558, 0.00589504, NaN, NaN, NaN, 0.0335714, "- N/A -   "
3.47, 104.855, 0.005964463, NaN, NaN, NaN, 0.0323506, "- N/A -   "
3.51, 106.153, 0.006036659, NaN, NaN, NaN, 0.0299091, "- N/A -   "
3.55, 107.568, 0.006108854, NaN, NaN, NaN, 0.0286883, "- N/A -   "
3.59, 108.512, 0.00616994, NaN, NaN, NaN, 0.03112983, "- N/A -   "
[...]
29.12, 1102.2, 0.04868757, NaN, NaN, NaN, 0.0445584, "- N/A -   "
29.19, 1105.9, 0.04882085, NaN, NaN, NaN, 0.0372337, "- N/A -   "
29.26, 1109.36, 0.04895136, NaN, NaN, NaN, 0.03112983, "- N/A -   "
29.33, 1112.34, 0.04906798, NaN, NaN, NaN, 0.0323506, "- N/A -   "
29.4, 1115.32, 0.0491735, NaN, NaN, NaN, 0.0372337, "- N/A -   "
29.47, 1118.66, 0.04929845, NaN, NaN, NaN, 0.0323506, "- N/A -   "
29.54, 1121.76, 0.0494123, NaN, NaN, NaN, 0.0335714, "- N/A -   "
29.61, 1124.74, 0.0495206, NaN, NaN, NaN, 0.0372337, "- N/A -   "
29.68, 1127.6, 0.0496289, NaN, NaN, NaN, 0.04089605, "- N/A -   "
29.75, 1130.58, 0.04974551, NaN, NaN, NaN, 0.04089605, "- N/A -   "
29.82, 1134.04, 0.0498649, NaN, NaN, NaN, 0.0396753, "- N/A -   "
29.89, 1137.38, 0.0499899, NaN, NaN, NaN, 0.03601294, "- N/A -   "
29.96, 1140.48, 0.0501093, NaN, NaN, NaN, 0.0347922, "- N/A -   "
30.03, 1143.58, 0.0502259, NaN, NaN, NaN, 0.0347922, "- N/A -   "
30.1, 1146.68, 0.05034529, NaN, NaN, NaN, 0.0347922, "- N/A -   "
30.17, 1149.782, 0.0504591, NaN, NaN, NaN, 0.0347922, "- N/A -   "
30.24, 1152.88, 0.0505758, NaN, NaN, NaN, 0.0347922, "- N/A -   "
30.31, 1155.86, 0.0506896, NaN, NaN, NaN, 0.03601294, "- N/A -   "
30.38, 1158.85, 0.0508007, NaN, NaN, NaN, 0.0384545, "- N/A -   "
30.45, 1161.95, 0.0509145, NaN, NaN, NaN, 0.0396753, "- N/A -   "
30.52, 1165.28, 0.0510311, NaN, NaN, NaN, 0.0396753, "- N/A -   "
30.59, 1168.62, 0.05115888, NaN, NaN, NaN, 0.0347922, "- N/A -   "
30.66, 1171.96, 0.0512838, NaN, NaN, NaN, 0.03112983, "- N/A -   "
30.73, 1174.825, 0.0513949, NaN, NaN, NaN, 0.0347922, "- N/A -   "
30.8, 1178.04, 0.0515143, NaN, NaN, NaN, 0.0335714, "- N/A -   "
30.87, 1181.503, 0.051642, NaN, NaN, NaN, 0.0286883, "- N/A -   "
30.94, 1184.365, 0.0517503, NaN, NaN, NaN, 0.0323506, "- N/A -   "
31.01, 1186.63, 0.0518475, NaN, NaN, NaN, 0.04089605, "- N/A -   "
31.08, 1189.37, 0.0519475, NaN, NaN, NaN, 0.0482207, "- N/A -   "
31.15, 1192.47, 0.0520613, NaN, NaN, NaN, 0.0494415, "- N/A -   "
31.22, 1196.05, 0.0521946, NaN, NaN, NaN, 0.04211683, "- N/A -   "
31.29, 1199.51, 0.0523251, NaN, NaN, NaN, 0.03601294, "- N/A -   "
31.36, 1202.85, 0.05244729, NaN, NaN, NaN, 0.0335714, "- N/A -   "
31.43, 1206.19, 0.0525722, NaN, NaN, NaN, 0.0299091, "- N/A -   "
31.5, 1209.29, 0.05268887, NaN, NaN, NaN, 0.0299091, "- N/A -   "
31.57, 1212.15, 0.0527972, NaN, NaN, NaN, 0.0335714, "- N/A -   "
31.64, 1214.77, 0.0528999, NaN, NaN, NaN, 0.0396753, "- N/A -   "
31.71, 1217.398, 0.05300264, NaN, NaN, NaN, 0.04577916, "- N/A -   "
31.78, 1220.62, 0.05312482, NaN, NaN, NaN, 0.0433376, "- N/A -   "
31.85, 1224.08, 0.0532498, NaN, NaN, NaN, 0.0396753, "- N/A -   "
31.92, 1227.18, 0.0533692, NaN, NaN, NaN, 0.0384545, "- N/A -   "
31.99, 1230.87, 0.0535052, NaN, NaN, NaN, 0.03112983, "- N/A -   "
32.06, 1234.21, 0.05362741, NaN, NaN, NaN, 0.0274675, "- N/A -   "
32.13, 1236.96, 0.0537413, NaN, NaN, NaN, 0.0299091, "- N/A -   "
32.2, 1239.82, 0.053844, NaN, NaN, NaN, 0.0347922, "- N/A -   "
32.27, 1242.8, 0.0539578, NaN, NaN, NaN, 0.03601294, "- N/A -   "
32.34, 1245.78, 0.05407169, NaN, NaN, NaN, 0.0372337, "- N/A -   "
32.41, 1248.642, 0.05417443, NaN, NaN, NaN, 0.0433376, "- N/A -   "
32.48, 1251.38, 0.0542827, NaN, NaN, NaN, 0.04699994, "- N/A -   "
32.55, 1254.72, 0.05440768, NaN, NaN, NaN, 0.0433376, "- N/A -   "
32.62, 1258.54, 0.0545437, NaN, NaN, NaN, 0.0347922, "- N/A -   "
32.69, 1261.64, 0.05466869, NaN, NaN, NaN, 0.03112983, "- N/A -   "
32.76, 1264.5, 0.05477143, NaN, NaN, NaN, 0.0372337, "- N/A -   "
32.83, 1267.48, 0.0548881, NaN, NaN, NaN, 0.0372337, "- N/A -   "
32.854, 1268.68, 0.0549325, NaN, NaN, NaN, 0.03601294, "- N/A -   "