Folder: DigitalTwins-Machine-Learning/2_Tensile_Data (part 42)

File: Hamel_ForceTest_Bolt10_Test6.csv
Time, Load (lb), Position (in), AxialStrain (in), TransverseStrain (in), Auxiliary (), Control Out (V), Stress (psi)
0.0, 11.0871, 0.0, NaN, NaN, NaN, -0.007935055, "- N/A -   "
0.01, 11.0871, 0.0, NaN, NaN, NaN, -6.103888E-4, "- N/A -   "
0.02, 11.0871, 0.0, NaN, NaN, NaN, 0.006714277, "- N/A -   "
0.03, 11.0871, 0.0, NaN, NaN, NaN, 0.01525972, "- N/A -   "
0.04, 11.0871, 2.776752E-6, NaN, NaN, NaN, 0.0335714, "- N/A -   "
0.05, 11.205, 1.1107e-05, NaN, NaN, NaN, 0.0494415, "- N/A -   "
0.06, 11.4409, 2.2214e-05, NaN, NaN, NaN, 0.0640908, "- N/A -   "
0.07, 11.6768, 4.16513e-05, NaN, NaN, NaN, 0.0762986, "- N/A -   "
0.08, 12.14859, 6.386529E-5, NaN, NaN, NaN, 0.08606482, "- N/A -   "
0.09, 12.7383, 8.885606E-5, NaN, NaN, NaN, 0.09461027, "- N/A -   "
0.1, 13.2101, 0.000116624, NaN, NaN, NaN, 0.100714, "- N/A -   "
0.11, 13.7999, 0.000147168, NaN, NaN, NaN, 0.095831, "- N/A -   "
0.12, 14.3896, 0.000174935, NaN, NaN, NaN, 0.09094793, "- N/A -   "
0.13, 14.7434, 0.000197149, NaN, NaN, NaN, 0.0872856, "- N/A -   "
0.14, 15.3332, 0.00022214, NaN, NaN, NaN, 0.08362327, "- N/A -   "
0.15, 15.687, 2.471309E-4, NaN, NaN, NaN, 0.08118171, "- N/A -   "
0.16, 16.1588, 0.000269345, NaN, NaN, NaN, 0.07751938, "- N/A -   "
0.17, 16.5126, 0.000291559, NaN, NaN, NaN, 0.0750778, "- N/A -   "
0.18, 16.86649, 3.165497E-4, NaN, NaN, NaN, 0.07263627, "- N/A -   "
0.19, 17.2203, 0.000335987, NaN, NaN, NaN, 0.07141549, "- N/A -   "
0.2, 17.6921, 0.000358201, NaN, NaN, NaN, 0.0689739, "- N/A -   "
0.21, 17.928, 0.000377638, NaN, NaN, NaN, 0.06653238, "- N/A -   "
0.22, 18.3998, 0.000394299, NaN, NaN, NaN, 0.06653238, "- N/A -   "
0.23, 18.6357, 4.13736E-4, NaN, NaN, NaN, 0.0653116, "- N/A -   "
0.24, 19.1075, 0.00043595, NaN, NaN, NaN, 0.0640908, "- N/A -   "
0.25, 19.57928, 4.553873E-4, NaN, NaN, NaN, 0.06287005, "- N/A -   "
0.26, 19.8152, 0.000474825, NaN, NaN, NaN, 0.06164927, "- N/A -   "
0.27, 20.169, 4.942618E-4, NaN, NaN, NaN, 0.0592077, "- N/A -   "
0.28, 20.52286, 5.164758E-4, NaN, NaN, NaN, 0.0579869, "- N/A -   "
0.29, 20.99465, 5.359131E-4, NaN, NaN, NaN, 0.0555454, "- N/A -   "
0.3, 21.3485, 5.553504E-4, NaN, NaN, NaN, 0.0543246, "- N/A -   "
0.31, 21.7023, 0.000577564, NaN, NaN, NaN, 0.05188305, "- N/A -   "
0.32, 22.0562, 0.000597002, NaN, NaN, NaN, 0.05066227, "- N/A -   "
0.33, 22.41, 0.000619216, NaN, NaN, NaN, 0.0482207, "- N/A -   "
0.34, 22.88181, 6.414297E-4, NaN, NaN, NaN, 0.04699994, "- N/A -   "
0.35, 23.2357, 6.608669E-4, NaN, NaN, NaN, 0.0445584, "- N/A -   "
0.36, 23.5895, 6.830809E-4, NaN, NaN, NaN, 0.0433376, "- N/A -   "
0.37, 23.9433, 7.025182E-4, NaN, NaN, NaN, 0.04089605, "- N/A -   "
0.38, 24.4151, 7.219555E-4, NaN, NaN, NaN, 0.0396753, "- N/A -   "
0.39, 24.65102, 7.413927E-4, NaN, NaN, NaN, 0.0384545, "- N/A -   "
0.4, 25.1228, 7.6083E-4, NaN, NaN, NaN, 0.0372337, "- N/A -   "
0.41, 25.3587, 7.774905E-4, NaN, NaN, NaN, 0.0372337, "- N/A -   "
0.42, 25.7125, 7.969278E-4, NaN, NaN, NaN, 0.03601294, "- N/A -   "
0.43, 26.0664, 8.16365E-4, NaN, NaN, NaN, 0.03601294, "- N/A -   "
0.44, 26.3023, 0.000833026, NaN, NaN, NaN, 0.0347922, "- N/A -   "
0.45, 26.7741, 0.000849686, NaN, NaN, NaN, 0.03601294, "- N/A -   "
0.46, 27.01, 8.663466E-4, NaN, NaN, NaN, 0.0347922, "- N/A -   "
0.47, 27.1279, 0.00088023, NaN, NaN, NaN, 0.03601294, "- N/A -   "
0.48, 27.4818, 8.968908E-4, NaN, NaN, NaN, 0.0372337, "- N/A -   "
0.49, 27.7177, 0.000913551, NaN, NaN, NaN, 0.0372337, "- N/A -   "
0.5, 28.0715, 9.274351E-4, NaN, NaN, NaN, 0.0372337, "- N/A -   "
0.51, 28.42534, 9.440956E-4, NaN, NaN, NaN, 0.0372337, "- N/A -   "
0.52, 28.7792, 9.635329E-4, NaN, NaN, NaN, 0.03601294, "- N/A -   "
0.53, 29.133, 9.829701E-4, NaN, NaN, NaN, 0.0347922, "- N/A -   "
0.54, 29.4869, 0.00100241, NaN, NaN, NaN, 0.0335714, "- N/A -   "
0.59, 31.1381, 0.00109126, NaN, NaN, NaN, 0.03112983, "- N/A -   "
0.64, 32.67145, 0.00117734, NaN, NaN, NaN, 0.03112983, "- N/A -   "
0.69, 34.08682, 0.00124954, NaN, NaN, NaN, 0.0347922, "- N/A -   "
0.74, 35.3842, 0.00132451, NaN, NaN, NaN, 0.0396753, "- N/A -   "
0.79, 36.6817, 0.001399483, NaN, NaN, NaN, 0.0433376, "- N/A -   "
0.84, 37.9791, 0.00147168, NaN, NaN, NaN, 0.04699994, "- N/A -   "
0.89, 39.7483, 0.00156053, NaN, NaN, NaN, 0.0445584, "- N/A -   "
0.94, 41.51751, 0.00165772, NaN, NaN, NaN, 0.0396753, "- N/A -   "
0.99, 43.1688, 0.0017438, NaN, NaN, NaN, 0.0372337, "- N/A -   "
1.04, 44.82, 0.00183266, NaN, NaN, NaN, 0.03601294, "- N/A -   "
1.09, 46.4713, 0.00191874, NaN, NaN, NaN, 0.0335714, "- N/A -   "
1.14, 48.2405, 0.00201592, NaN, NaN, NaN, 0.0286883, "- N/A -   "
1.19, 49.7738, 0.00209645, NaN, NaN, NaN, 0.0286883, "- N/A -   "
1.24, 51.30715, 0.00217697, NaN, NaN, NaN, 0.0299091, "- N/A -   "
1.29, 52.9584, 0.002260276, NaN, NaN, NaN, 0.0299091, "- N/A -   "
1.34, 54.2558, 0.00233247, NaN, NaN, NaN, 0.03601294, "- N/A -   "
1.39, 55.6712, 0.002404667, NaN, NaN, NaN, 0.0396753, "- N/A -   "
1.44, 56.9686, 0.00247964, NaN, NaN, NaN, 0.0433376, "- N/A -   "
1.49, 58.6199, 0.002562942, NaN, NaN, NaN, 0.0433376, "- N/A -   "
1.54, 60.15321, 0.00264347, NaN, NaN, NaN, 0.0445584, "- N/A -   "
1.59, 61.8045, 0.00272677, NaN, NaN, NaN, 0.0445584, "- N/A -   "
1.64, 63.45574, 0.00281563, NaN, NaN, NaN, 0.04211683, "- N/A -   "
1.69, 65.4608, 0.00291281, NaN, NaN, NaN, 0.0372337, "- N/A -   "
1.74, 67.23006, 0.003009999, NaN, NaN, NaN, 0.0299091, "- N/A -   "
1.79, 68.8813, 0.00309608, NaN, NaN, NaN, 0.0286883, "- N/A -   "
1.84, 70.5326, 0.0031766, NaN, NaN, NaN, 0.0299091, "- N/A -   "
1.89, 71.83001, 0.00325158, NaN, NaN, NaN, 0.0335714, "- N/A -   "
1.94, 73.48127, 0.0033321, NaN, NaN, NaN, 0.0347922, "- N/A -   "
1.99, 75.13254, 0.003412628, NaN, NaN, NaN, 0.03601294, "- N/A -   "
2.04, 76.7838, 0.00349593, NaN, NaN, NaN, 0.03601294, "- N/A -   "
2.09, 78.31712, 0.00357368, NaN, NaN, NaN, 0.0384545, "- N/A -   "
2.14, 79.73249, 0.00364865, NaN, NaN, NaN, 0.04211683, "- N/A -   "
2.19, 81.26581, 0.003726401, NaN, NaN, NaN, 0.0445584, "- N/A -   "
2.24, 82.91707, 0.00381248, NaN, NaN, NaN, 0.0433376, "- N/A -   "
2.29, 84.92217, 0.00391244, NaN, NaN, NaN, 0.03601294, "- N/A -   "
2.34, 86.80934, 0.004006853, NaN, NaN, NaN, 0.03112983, "- N/A -   "
2.39, 88.57855, 0.00409016, NaN, NaN, NaN, 0.03112983, "- N/A -   "
2.44, 90.11186, 0.00417068, NaN, NaN, NaN, 0.0323506, "- N/A -   "
2.49, 91.52724, 0.004251207, NaN, NaN, NaN, 0.0347922, "- N/A -   "
2.54, 93.2965, 0.00433173, NaN, NaN, NaN, 0.0347922, "- N/A -   "
2.59, 94.8298, 0.00441781, NaN, NaN, NaN, 0.0347922, "- N/A -   "
2.64, 96.71693, 0.00450389, NaN, NaN, NaN, 0.0323506, "- N/A -   "
2.69, 98.13229, 0.00457886, NaN, NaN, NaN, 0.03601294, "- N/A -   "
2.74, 99.7836, 0.00465939, NaN, NaN, NaN, 0.0384545, "- N/A -   "
2.79, 101.199, 0.00473159, NaN, NaN, NaN, 0.04211683, "- N/A -   "
2.84, 102.85, 0.00482044, NaN, NaN, NaN, 0.0396753, "- N/A -   "
2.89, 104.737, 0.00490652, NaN, NaN, NaN, 0.0396753, "- N/A -   "
2.94, 106.389, 0.0049926, NaN, NaN, NaN, 0.0384545, "- N/A -   "
2.99, 108.04, 0.00507868, NaN, NaN, NaN, 0.0372337, "- N/A -   "
3.04, 109.691, 0.00515921, NaN, NaN, NaN, 0.0372337, "- N/A -   "
3.09, 111.342, 0.00524528, NaN, NaN, NaN, 0.03601294, "- N/A -   "
3.14, 113.112, 0.00533136, NaN, NaN, NaN, 0.0347922, "- N/A -   "
3.19, 114.881, 0.00541744, NaN, NaN, NaN, 0.0335714, "- N/A -   "
[...]
34.37, 1375.29, 0.05736492, NaN, NaN, NaN, 0.04211683, "- N/A -   "
34.4, 1376.72, 0.05741768, NaN, NaN, NaN, 0.04089605, "- N/A -   "
34.43, 1378.27, 0.0574732, NaN, NaN, NaN, 0.0384545, "- N/A -   "
34.46, 1379.7, 0.05752875, NaN, NaN, NaN, 0.03601294, "- N/A -   "
34.49, 1381.25, 0.0575871, NaN, NaN, NaN, 0.0323506, "- N/A -   "
34.52, 1382.56, 0.05763704, NaN, NaN, NaN, 0.0323506, "- N/A -   "
34.55, 1383.87, 0.057687, NaN, NaN, NaN, 0.0323506, "- N/A -   "
34.58, 1385.07, 0.057737, NaN, NaN, NaN, 0.0323506, "- N/A -   "
34.61, 1386.38, 0.057787, NaN, NaN, NaN, 0.0323506, "- N/A -   "
34.64, 1387.69, 0.057837, NaN, NaN, NaN, 0.0323506, "- N/A -   "
34.67, 1389.12, 0.0578925, NaN, NaN, NaN, 0.0299091, "- N/A -   "
34.7, 1390.55, 0.05794526, NaN, NaN, NaN, 0.0286883, "- N/A -   "
34.73, 1391.86, 0.05799524, NaN, NaN, NaN, 0.0299091, "- N/A -   "
34.76, 1393.056, 0.05804522, NaN, NaN, NaN, 0.0299091, "- N/A -   "
34.79, 1394.37, 0.05809243, NaN, NaN, NaN, 0.03112983, "- N/A -   "
34.82, 1395.44, 0.0581369, NaN, NaN, NaN, 0.0323506, "- N/A -   "
34.85, 1396.51, 0.0581785, NaN, NaN, NaN, 0.03601294, "- N/A -   "
34.88, 1397.349, 0.0582174, NaN, NaN, NaN, 0.04089605, "- N/A -   "
34.91, 1398.54, 0.0582618, NaN, NaN, NaN, 0.0433376, "- N/A -   "
34.94, 1399.61, 0.058309, NaN, NaN, NaN, 0.04577916, "- N/A -   "
34.97, 1400.93, 0.0583534, NaN, NaN, NaN, 0.0482207, "- N/A -   "
35, 1402.36, 0.0584062, NaN, NaN, NaN, 0.04577916, "- N/A -   "
35.03, 1403.79, 0.0584645, NaN, NaN, NaN, 0.0433376, "- N/A -   "
35.06, 1405.339, 0.0585228, NaN, NaN, NaN, 0.0396753, "- N/A -   "
35.09, 1406.77, 0.0585784, NaN, NaN, NaN, 0.0372337, "- N/A -   "
35.12, 1408.2, 0.0586311, NaN, NaN, NaN, 0.0347922, "- N/A -   "
35.15, 1409.63, 0.05868665, NaN, NaN, NaN, 0.0323506, "- N/A -   "
35.18, 1410.94, 0.0587366, NaN, NaN, NaN, 0.0323506, "- N/A -   "
35.21, 1412.37, 0.0587894, NaN, NaN, NaN, 0.03112983, "- N/A -   "
35.24, 1413.69, 0.0588449, NaN, NaN, NaN, 0.0299091, "- N/A -   "
35.27, 1415.12, 0.0588977, NaN, NaN, NaN, 0.0286883, "- N/A -   "
35.3, 1416.43, 0.0589477, NaN, NaN, NaN, 0.0299091, "- N/A -   "
35.33, 1417.622, 0.05899487, NaN, NaN, NaN, 0.0299091, "- N/A -   "
35.36, 1418.93, 0.0590449, NaN, NaN, NaN, 0.0299091, "- N/A -   "
35.39, 1420.13, 0.05909206, NaN, NaN, NaN, 0.03112983, "- N/A -   "
35.42, 1421.32, 0.0591393, NaN, NaN, NaN, 0.0335714, "- N/A -   "
35.45, 1422.39, 0.0591809, NaN, NaN, NaN, 0.03601294, "- N/A -   "
35.48, 1423.47, 0.0592226, NaN, NaN, NaN, 0.0396753, "- N/A -   "
35.51, 1424.54, 0.05926977, NaN, NaN, NaN, 0.04211683, "- N/A -   "
35.54, 1425.61, 0.0593142, NaN, NaN, NaN, 0.0433376, "- N/A -   "
35.57, 1426.8, 0.05935863, NaN, NaN, NaN, 0.04577916, "- N/A -   "
35.6, 1428.12, 0.0594114, NaN, NaN, NaN, 0.0445584, "- N/A -   "
35.63, 1429.55, 0.0594641, NaN, NaN, NaN, 0.0433376, "- N/A -   "
35.66, 1430.86, 0.05951135, NaN, NaN, NaN, 0.04577916, "- N/A -   "
35.69, 1432.17, 0.0595641, NaN, NaN, NaN, 0.0445584, "- N/A -   "
35.72, 1433.36, 0.05961409, NaN, NaN, NaN, 0.0433376, "- N/A -   "
35.75, 1434.91, 0.0596668, NaN, NaN, NaN, 0.0433376, "- N/A -   "
35.78, 1436.34, 0.0597224, NaN, NaN, NaN, 0.0396753, "- N/A -   "
35.81, 1437.78, 0.0597779, NaN, NaN, NaN, 0.0372337, "- N/A -   "
35.84, 1439.33, 0.05983623, NaN, NaN, NaN, 0.0335714, "- N/A -   "
35.87, 1440.88, 0.0598973, NaN, NaN, NaN, 0.0299091, "- N/A -   "
35.9, 1442.43, 0.05995285, NaN, NaN, NaN, 0.0274675, "- N/A -   "
35.93, 1443.5, 0.0600001, NaN, NaN, NaN, 0.0274675, "- N/A -   "
35.96, 1444.81, 0.06005004, NaN, NaN, NaN, 0.0274675, "- N/A -   "
35.966, 1445.05, 0.0600584, NaN, NaN, NaN, 0.0286883, "- N/A -   "

File: Hamel_ForceTest_Bolt10_Test7.csv
Time, Load (lb), Position (in), AxialStrain (in), TransverseStrain (in), Auxiliary (), Control Out (V), Stress (psi)
0.0, 17.5742, 0.0, NaN, NaN, NaN, -0.006714277, "- N/A -   "
0.01, 17.6921, 2.776752E-6, NaN, NaN, NaN, -6.103888E-4, "- N/A -   "
0.02, 17.6921, 2.776752E-6, NaN, NaN, NaN, 0.006714277, "- N/A -   "
0.03, 17.5742, 2.776752E-6, NaN, NaN, NaN, 0.0177013, "- N/A -   "
0.04, 17.6921, 5.553504E-6, NaN, NaN, NaN, 0.03601294, "- N/A -   "
0.05, 17.6921, 1.38838e-05, NaN, NaN, NaN, 0.05188305, "- N/A -   "
0.06, 17.928, 2.49908e-05, NaN, NaN, NaN, 0.06653238, "- N/A -   "
0.07, 18.16391, 4.16513e-05, NaN, NaN, NaN, 0.0799609, "- N/A -   "
0.08, 18.7536, 6.108854E-5, NaN, NaN, NaN, 0.0897272, "- N/A -   "
0.09, 19.2254, 8.607931E-5, NaN, NaN, NaN, 0.09949338, "- N/A -   "
0.1, 19.8152, 0.000113847, NaN, NaN, NaN, 0.105597, "- N/A -   "
0.11, 20.4049, 0.000144391, NaN, NaN, NaN, 0.1092596, "- N/A -   "
0.12, 21.1126, 0.000174935, NaN, NaN, NaN, 0.103156, "- N/A -   "
0.13, 21.7023, 0.00020548, NaN, NaN, NaN, 0.09705182, "- N/A -   "
0.14, 22.1741, 0.000233247, NaN, NaN, NaN, 0.09216871, "- N/A -   "
0.15, 22.6459, 0.000261015, NaN, NaN, NaN, 0.08850638, "- N/A -   "
0.16, 23.2357, 0.000286005, NaN, NaN, NaN, 0.08362327, "- N/A -   "
0.17, 23.82539, 3.109962E-4, NaN, NaN, NaN, 0.0799609, "- N/A -   "
0.18, 24.29718, 0.000335987, NaN, NaN, NaN, 0.07751938, "- N/A -   "
0.19, 24.65102, 0.000358201, NaN, NaN, NaN, 0.0750778, "- N/A -   "
0.2, 25.1228, 0.000377638, NaN, NaN, NaN, 0.07263627, "- N/A -   "
0.21, 25.5946, 0.000397076, NaN, NaN, NaN, 0.07141549, "- N/A -   "
0.22, 25.8305, 0.000416513, NaN, NaN, NaN, 0.0701947, "- N/A -   "
0.23, 26.3023, 0.00043595, NaN, NaN, NaN, 0.0689739, "- N/A -   "
0.24, 26.6561, 0.000458164, NaN, NaN, NaN, 0.06775316, "- N/A -   "
0.25, 27.1279, 4.776013E-4, NaN, NaN, NaN, 0.0653116, "- N/A -   "
0.26, 27.4818, 0.000499815, NaN, NaN, NaN, 0.0640908, "- N/A -   "
0.27, 27.8356, 5.192526E-4, NaN, NaN, NaN, 0.06164927, "- N/A -   "
0.28, 28.3074, 5.414666E-4, NaN, NaN, NaN, 0.0592077, "- N/A -   "
0.29, 28.7792, 5.636806E-4, NaN, NaN, NaN, 0.05676616, "- N/A -   "
0.3, 29.133, 5.831179E-4, NaN, NaN, NaN, 0.0555454, "- N/A -   "
0.31, 29.4869, 0.000608109, NaN, NaN, NaN, 0.0531038, "- N/A -   "
0.32, 29.84071, 0.000630323, NaN, NaN, NaN, 0.0494415, "- N/A -   "
0.33, 30.4304, 0.000655313, NaN, NaN, NaN, 0.04699994, "- N/A -   "
0.34, 31.0202, 6.747507E-4, NaN, NaN, NaN, 0.0445584, "- N/A -   "
0.35, 31.2561, 6.969647E-4, NaN, NaN, NaN, 0.0433376, "- N/A -   "
0.36, 31.72787, 0.000716402, NaN, NaN, NaN, 0.04089605, "- N/A -   "
0.37, 32.1997, 0.000735839, NaN, NaN, NaN, 0.0396753, "- N/A -   "
0.38, 32.5535, 0.0007525, NaN, NaN, NaN, 0.0396753, "- N/A -   "
0.39, 32.7894, 7.71937E-4, NaN, NaN, NaN, 0.0384545, "- N/A -   "
0.4, 33.1432, 0.000791374, NaN, NaN, NaN, 0.0372337, "- N/A -   "
0.45, 34.7945, 8.774536E-4, NaN, NaN, NaN, 0.03601294, "- N/A -   "
0.5, 36.5637, 0.000960756, NaN, NaN, NaN, 0.03601294, "- N/A -   "
0.55, 38.3329, 0.00105239, NaN, NaN, NaN, 0.0335714, "- N/A -   "
0.6, 39.98419, 0.00113847, NaN, NaN, NaN, 0.03112983, "- N/A -   "
0.65, 41.51751, 0.00121622, NaN, NaN, NaN, 0.0335714, "- N/A -   "
0.7, 43.0508, 0.00128841, NaN, NaN, NaN, 0.0384545, "- N/A -   "
0.75, 44.34825, 0.00136061, NaN, NaN, NaN, 0.0433376, "- N/A -   "
0.8, 45.76362, 0.00143558, NaN, NaN, NaN, 0.0482207, "- N/A -   "
0.85, 47.5328, 0.00151611, NaN, NaN, NaN, 0.0482207, "- N/A -   "
0.9, 49.5379, 0.00161329, NaN, NaN, NaN, 0.0433376, "- N/A -   "
0.95, 51.543, 0.0017077, NaN, NaN, NaN, 0.0372337, "- N/A -   "
1, 53.19431, 0.00179656, NaN, NaN, NaN, 0.0347922, "- N/A -   "
1.05, 54.9635, 0.001879861, NaN, NaN, NaN, 0.0347922, "- N/A -   "
1.1, 56.73273, 0.001968717, NaN, NaN, NaN, 0.0323506, "- N/A -   "
1.15, 58.6199, 0.00206313, NaN, NaN, NaN, 0.0274675, "- N/A -   "
1.2, 60.3891, 0.00214643, NaN, NaN, NaN, 0.0286883, "- N/A -   "
1.25, 62.0404, 0.002226955, NaN, NaN, NaN, 0.0286883, "- N/A -   "
1.3, 63.45574, 0.00229915, NaN, NaN, NaN, 0.0335714, "- N/A -   "
1.35, 64.87111, 0.002371346, NaN, NaN, NaN, 0.0396753, "- N/A -   "
1.4, 66.40443, 0.00244354, NaN, NaN, NaN, 0.0433376, "- N/A -   "
1.45, 68.05569, 0.00252684, NaN, NaN, NaN, 0.0445584, "- N/A -   "
1.5, 69.8249, 0.00261015, NaN, NaN, NaN, 0.0433376, "- N/A -   "
1.55, 71.3582, 0.0026879, NaN, NaN, NaN, 0.04577916, "- N/A -   "
1.6, 73.2454, 0.00277398, NaN, NaN, NaN, 0.0445584, "- N/A -   "
1.65, 75.0146, 0.00286838, NaN, NaN, NaN, 0.0396753, "- N/A -   "
1.7, 77.13765, 0.00296835, NaN, NaN, NaN, 0.0335714, "- N/A -   "
1.75, 79.0248, 0.003057204, NaN, NaN, NaN, 0.0299091, "- N/A -   "
1.8, 80.67606, 0.003143283, NaN, NaN, NaN, 0.0299091, "- N/A -   "
1.85, 82.32734, 0.00322103, NaN, NaN, NaN, 0.03112983, "- N/A -   "
1.9, 83.74271, 0.003296, NaN, NaN, NaN, 0.0347922, "- N/A -   "
1.95, 85.51192, 0.00337653, NaN, NaN, NaN, 0.0372337, "- N/A -   "
2, 87.16318, 0.00345706, NaN, NaN, NaN, 0.0372337, "- N/A -   "
2.05, 88.9324, 0.00354036, NaN, NaN, NaN, 0.0372337, "- N/A -   "
2.1, 90.11186, 0.00361255, NaN, NaN, NaN, 0.04211683, "- N/A -   "
2.15, 91.88108, 0.0036903, NaN, NaN, NaN, 0.0445584, "- N/A -   "
2.2, 93.53234, 0.003770829, NaN, NaN, NaN, 0.04577916, "- N/A -   "
2.25, 95.30156, 0.00386524, NaN, NaN, NaN, 0.04089605, "- N/A -   "
2.3, 97.30666, 0.003965202, NaN, NaN, NaN, 0.0347922, "- N/A -   "
2.35, 99.1938, 0.00405961, NaN, NaN, NaN, 0.0286883, "- N/A -   "
2.4, 100.845, 0.004140137, NaN, NaN, NaN, 0.0299091, "- N/A -   "
2.45, 102.26, 0.004215109, NaN, NaN, NaN, 0.0335714, "- N/A -   "
2.5, 103.794, 0.004298412, NaN, NaN, NaN, 0.0347922, "- N/A -   "
2.55, 105.327, 0.00438171, NaN, NaN, NaN, 0.0347922, "- N/A -   "
2.6, 107.0963, 0.00447057, NaN, NaN, NaN, 0.0323506, "- N/A -   "
2.65, 108.63, 0.00454832, NaN, NaN, NaN, 0.0335714, "- N/A -   "
2.7, 110.163, 0.00462607, NaN, NaN, NaN, 0.03601294, "- N/A -   "
2.75, 111.46, 0.004701041, NaN, NaN, NaN, 0.04089605, "- N/A -   "
2.8, 112.876, 0.00477879, NaN, NaN, NaN, 0.04211683, "- N/A -   "
2.85, 114.763, 0.0048732, NaN, NaN, NaN, 0.0372337, "- N/A -   "
2.9, 116.414, 0.004956502, NaN, NaN, NaN, 0.0372337, "- N/A -   "
2.95, 117.83, 0.00504258, NaN, NaN, NaN, 0.03601294, "- N/A -   "
3, 119.481, 0.005125884, NaN, NaN, NaN, 0.03601294, "- N/A -   "
3.05, 121.132, 0.00521474, NaN, NaN, NaN, 0.0347922, "- N/A -   "
3.1, 122.547, 0.00529804, NaN, NaN, NaN, 0.0335714, "- N/A -   "
3.15, 124.081, 0.00538412, NaN, NaN, NaN, 0.0323506, "- N/A -   "
3.2, 125.614, 0.00546742, NaN, NaN, NaN, 0.0323506, "- N/A -   "
3.25, 126.911, 0.00554795, NaN, NaN, NaN, 0.0347922, "- N/A -   "
3.3, 128.209, 0.005628476, NaN, NaN, NaN, 0.0347922, "- N/A -   "
3.35, 129.624, 0.005709002, NaN, NaN, NaN, 0.03601294, "- N/A -   "
3.4, 131.276, 0.005797858, NaN, NaN, NaN, 0.0335714, "- N/A -   "
3.45, 132.573, 0.005875607, NaN, NaN, NaN, 0.03601294, "- N/A -   "
3.5, 133.87, 0.005950579, NaN, NaN, NaN, 0.0396753, "- N/A -   "
3.55, 135.286, 0.006031105, NaN, NaN, NaN, 0.04089605, "- N/A -   "
3.6, 136.583, 0.006108854, NaN, NaN, NaN, 0.0433376, "- N/A -   "
3.65, 138.116, 0.006192157, NaN, NaN, NaN, 0.0445584, "- N/A -   "
3.7, 139.768, 0.006289343, NaN, NaN, NaN, 0.0396753, "- N/A -   "
3.75, 141.537, 0.00638375, NaN, NaN, NaN, 0.0335714, "- N/A -   "
[...]
26.12, 1007.91, 0.0436367, NaN, NaN, NaN, 0.04577916, "- N/A -   "
26.33, 1017.77, 0.04401429, NaN, NaN, NaN, 0.03601294, "- N/A -   "
26.54, 1027.191, 0.0443697, NaN, NaN, NaN, 0.0323506, "- N/A -   "
26.75, 1035.9, 0.0447002, NaN, NaN, NaN, 0.04089605, "- N/A -   "
26.96, 1045.32, 0.0450611, NaN, NaN, NaN, 0.03601294, "- N/A -   "
27.17, 1054.98, 0.0454193, NaN, NaN, NaN, 0.0323506, "- N/A -   "
27.38, 1063.682, 0.0457498, NaN, NaN, NaN, 0.04089605, "- N/A -   "
27.59, 1072.75, 0.0460969, NaN, NaN, NaN, 0.04211683, "- N/A -   "
27.8, 1082.4, 0.0464606, NaN, NaN, NaN, 0.03601294, "- N/A -   "
28.01, 1091.587, 0.0468049, NaN, NaN, NaN, 0.0384545, "- N/A -   "
28.22, 1100.77, 0.0471576, NaN, NaN, NaN, 0.0384545, "- N/A -   "
28.43, 1110.79, 0.04752966, NaN, NaN, NaN, 0.0274675, "- N/A -   "
28.64, 1119.37, 0.04785454, NaN, NaN, NaN, 0.0384545, "- N/A -   "
28.85, 1128.2, 0.0481905, NaN, NaN, NaN, 0.04577916, "- N/A -   "
29.06, 1138.33, 0.04857372, NaN, NaN, NaN, 0.0299091, "- N/A -   "
29.27, 1147.16, 0.04890693, NaN, NaN, NaN, 0.0372337, "- N/A -   "
29.48, 1155.983, 0.0492374, NaN, NaN, NaN, 0.04577916, "- N/A -   "
29.69, 1166.358, 0.0496261, NaN, NaN, NaN, 0.0286883, "- N/A -   "
29.9, 1175.42, 0.0499704, NaN, NaN, NaN, 0.0323506, "- N/A -   "
30.11, 1184.01, 0.0503009, NaN, NaN, NaN, 0.04089605, "- N/A -   "
30.32, 1193.43, 0.05065351, NaN, NaN, NaN, 0.0384545, "- N/A -   "
30.53, 1203.326, 0.05101726, NaN, NaN, NaN, 0.0323506, "- N/A -   "
30.74, 1212.27, 0.05136158, NaN, NaN, NaN, 0.0347922, "- N/A -   "
30.95, 1221.33, 0.05170312, NaN, NaN, NaN, 0.04089605, "- N/A -   "
31.16, 1230.75, 0.0520669, NaN, NaN, NaN, 0.0335714, "- N/A -   "
31.37, 1240.175, 0.05241952, NaN, NaN, NaN, 0.0323506, "- N/A -   "
31.58, 1248.52, 0.0527388, NaN, NaN, NaN, 0.04577916, "- N/A -   "
31.79, 1258.54, 0.0531165, NaN, NaN, NaN, 0.0335714, "- N/A -   "
32, 1267.72, 0.0534691, NaN, NaN, NaN, 0.0335714, "- N/A -   "
32.21, 1276.31, 0.05379679, NaN, NaN, NaN, 0.04211683, "- N/A -   "
32.42, 1286.44, 0.0541772, NaN, NaN, NaN, 0.0286883, "- N/A -   "
32.63, 1295.27, 0.054516, NaN, NaN, NaN, 0.0335714, "- N/A -   "
32.84, 1303.86, 0.0548436, NaN, NaN, NaN, 0.0445584, "- N/A -   "
33.05, 1313.75, 0.0552185, NaN, NaN, NaN, 0.0323506, "- N/A -   "
33.26, 1322.7, 0.05556003, NaN, NaN, NaN, 0.0372337, "- N/A -   "
33.47, 1331.522, 0.0558988, NaN, NaN, NaN, 0.04089605, "- N/A -   "
33.68, 1341.3, 0.0562625, NaN, NaN, NaN, 0.0347922, "- N/A -   "
33.89, 1350.36, 0.0566152, NaN, NaN, NaN, 0.0335714, "- N/A -   "
34.1, 1359.78, 0.05696784, NaN, NaN, NaN, 0.0323506, "- N/A -   "
34.31, 1368.01, 0.0572844, NaN, NaN, NaN, 0.04699994, "- N/A -   "
34.52, 1378.15, 0.0576648, NaN, NaN, NaN, 0.0335714, "- N/A -   "
34.73, 1387.69, 0.05802856, NaN, NaN, NaN, 0.0274675, "- N/A -   "
34.94, 1395.68, 0.058334, NaN, NaN, NaN, 0.04699994, "- N/A -   "
35.15, 1406.05, 0.05872275, NaN, NaN, NaN, 0.03112983, "- N/A -   "
35.36, 1415.48, 0.05907817, NaN, NaN, NaN, 0.0286883, "- N/A -   "
35.57, 1423.47, 0.0593892, NaN, NaN, NaN, 0.04577916, "- N/A -   "
35.78, 1433.12, 0.0597557, NaN, NaN, NaN, 0.0396753, "- N/A -   "
35.99, 1442.55, 0.0601167, NaN, NaN, NaN, 0.0335714, "- N/A -   "
36.2, 1451.37, 0.0604499, NaN, NaN, NaN, 0.04089605, "- N/A -   "
36.41, 1460.91, 0.0608109, NaN, NaN, NaN, 0.03601294, "- N/A -   "
36.62, 1469.97, 0.0611607, NaN, NaN, NaN, 0.03601294, "- N/A -   "
36.83, 1479.04, 0.0615106, NaN, NaN, NaN, 0.03601294, "- N/A -   "
37.04, 1487.86, 0.06184937, NaN, NaN, NaN, 0.04089605, "- N/A -   "
37.165, 1493.47, 0.06206596, NaN, NaN, NaN, 0.0372337, "- N/A -   "