Folder: DigitalTwins-Machine-Learning/2_Tensile_Data (part 21)

File: Hamel_ForceTest_Bolt6_Test7.csv
Time, Load (lb), Position (in), AxialStrain (in), TransverseStrain (in), Auxiliary (), Control Out (V), Stress (psi)
0.0, 9.199903, 0.0, NaN, NaN, NaN, -0.006714277, "- N/A -   "
0.01, 9.199903, 0.0, NaN, NaN, NaN, 6.103888E-4, "- N/A -   "
0.02, 9.199903, 2.776752E-6, NaN, NaN, NaN, 0.006714277, "- N/A -   "
0.03, 9.199903, 2.776752E-6, NaN, NaN, NaN, 0.0189221, "- N/A -   "
0.04, 9.199903, 8.330256E-6, NaN, NaN, NaN, 0.03601294, "- N/A -   "
0.05, 9.199903, 1.38838e-05, NaN, NaN, NaN, 0.0531038, "- N/A -   "
0.06, 9.31785, 2.77675e-05, NaN, NaN, NaN, 0.06775316, "- N/A -   "
0.07, 9.553744, 4.442803E-5, NaN, NaN, NaN, 0.07874016, "- N/A -   "
0.08, 9.78964, 6.6642e-05, NaN, NaN, NaN, 0.08850638, "- N/A -   "
0.09, 10.1435, 9.440956E-5, NaN, NaN, NaN, 0.09705182, "- N/A -   "
0.1, 10.3794, 0.000122177, NaN, NaN, NaN, 0.104376, "- N/A -   "
0.11, 10.73322, 1.499446E-4, NaN, NaN, NaN, 0.101935, "- N/A -   "
0.12, 11.0871, 0.000180489, NaN, NaN, NaN, 0.095831, "- N/A -   "
0.13, 11.5589, 0.000208256, NaN, NaN, NaN, 0.09094793, "- N/A -   "
0.14, 11.9127, 0.000233247, NaN, NaN, NaN, 0.0872856, "- N/A -   "
0.15, 12.14859, 0.000261015, NaN, NaN, NaN, 0.08362327, "- N/A -   "
0.16, 12.5024, 2.832287E-4, NaN, NaN, NaN, 0.0799609, "- N/A -   "
0.17, 12.7383, 0.000308219, NaN, NaN, NaN, 0.0762986, "- N/A -   "
0.18, 12.9742, 0.000330433, NaN, NaN, NaN, 0.0750778, "- N/A -   "
0.19, 13.3281, 0.000352647, NaN, NaN, NaN, 0.07263627, "- N/A -   "
0.2, 13.6819, 0.000372085, NaN, NaN, NaN, 0.0701947, "- N/A -   "
0.21, 13.7999, 0.000391522, NaN, NaN, NaN, 0.0689739, "- N/A -   "
0.22, 14.0357, 4.13736E-4, NaN, NaN, NaN, 0.06775316, "- N/A -   "
0.23, 14.2716, 4.331733E-4, NaN, NaN, NaN, 0.06653238, "- N/A -   "
0.24, 14.6255, 4.553873E-4, NaN, NaN, NaN, 0.0640908, "- N/A -   "
0.25, 14.8614, 0.000474825, NaN, NaN, NaN, 0.06164927, "- N/A -   "
0.26, 15.2152, 4.970386E-4, NaN, NaN, NaN, 0.0604285, "- N/A -   "
0.27, 15.4511, 5.164758E-4, NaN, NaN, NaN, 0.0579869, "- N/A -   "
0.28, 15.687, 0.00053869, NaN, NaN, NaN, 0.0555454, "- N/A -   "
0.29, 16.0409, 0.000560904, NaN, NaN, NaN, 0.0543246, "- N/A -   "
0.3, 16.27675, 0.000580341, NaN, NaN, NaN, 0.05188305, "- N/A -   "
0.31, 16.6306, 5.997784E-4, NaN, NaN, NaN, 0.05066227, "- N/A -   "
0.32, 16.86649, 6.219924E-4, NaN, NaN, NaN, 0.0494415, "- N/A -   "
0.33, 17.2203, 6.442064E-4, NaN, NaN, NaN, 0.04699994, "- N/A -   "
0.34, 17.4562, 6.636437E-4, NaN, NaN, NaN, 0.0445584, "- N/A -   "
0.35, 17.8101, 6.858577E-4, NaN, NaN, NaN, 0.04211683, "- N/A -   "
0.36, 18.046, 0.000705295, NaN, NaN, NaN, 0.04089605, "- N/A -   "
0.37, 18.3998, 7.27509E-4, NaN, NaN, NaN, 0.0384545, "- N/A -   "
0.38, 18.5178, 0.000744169, NaN, NaN, NaN, 0.0384545, "- N/A -   "
0.39, 18.7536, 0.000763607, NaN, NaN, NaN, 0.0372337, "- N/A -   "
0.4, 18.9895, 0.000780267, NaN, NaN, NaN, 0.0372337, "- N/A -   "
0.41, 19.3434, 7.997045E-4, NaN, NaN, NaN, 0.03601294, "- N/A -   "
0.42, 19.4613, 8.16365E-4, NaN, NaN, NaN, 0.03601294, "- N/A -   "
0.43, 19.6972, 0.000833026, NaN, NaN, NaN, 0.03601294, "- N/A -   "
0.44, 20.05107, 0.000849686, NaN, NaN, NaN, 0.03601294, "- N/A -   "
0.45, 20.169, 8.635698E-4, NaN, NaN, NaN, 0.0372337, "- N/A -   "
0.46, 20.4049, 8.830071E-4, NaN, NaN, NaN, 0.0372337, "- N/A -   "
0.5, 21.46644, 0.000949649, NaN, NaN, NaN, 0.03601294, "- N/A -   "
0.54, 22.41, 0.00102462, NaN, NaN, NaN, 0.0335714, "- N/A -   "
0.58, 23.4715, 0.001096817, NaN, NaN, NaN, 0.0299091, "- N/A -   "
0.62, 24.4151, 0.001163459, NaN, NaN, NaN, 0.0299091, "- N/A -   "
0.66, 25.3587, 0.00122455, NaN, NaN, NaN, 0.0323506, "- N/A -   "
0.7, 26.0664, 0.00128564, NaN, NaN, NaN, 0.03601294, "- N/A -   "
0.74, 26.7741, 0.00133562, NaN, NaN, NaN, 0.04211683, "- N/A -   "
0.78, 27.5997, 0.00139393, NaN, NaN, NaN, 0.04577916, "- N/A -   "
0.82, 28.6612, 0.00145779, NaN, NaN, NaN, 0.04699994, "- N/A -   "
0.86, 29.4869, 0.00152721, NaN, NaN, NaN, 0.04699994, "- N/A -   "
0.9, 30.5484, 0.001599409, NaN, NaN, NaN, 0.0433376, "- N/A -   "
0.94, 31.72787, 0.00167438, NaN, NaN, NaN, 0.0396753, "- N/A -   "
0.98, 32.9073, 0.00174935, NaN, NaN, NaN, 0.03601294, "- N/A -   "
1.02, 33.8509, 0.00182155, NaN, NaN, NaN, 0.0347922, "- N/A -   "
1.06, 34.9125, 0.001890968, NaN, NaN, NaN, 0.0323506, "- N/A -   "
1.1, 35.85603, 0.00196316, NaN, NaN, NaN, 0.03112983, "- N/A -   "
1.14, 37.0355, 0.00203258, NaN, NaN, NaN, 0.0286883, "- N/A -   "
1.18, 37.9791, 0.00209922, NaN, NaN, NaN, 0.0286883, "- N/A -   "
1.22, 39.04061, 0.00216309, NaN, NaN, NaN, 0.0299091, "- N/A -   "
1.26, 39.98419, 0.00222973, NaN, NaN, NaN, 0.0299091, "- N/A -   "
1.3, 40.8098, 0.00229082, NaN, NaN, NaN, 0.0335714, "- N/A -   "
1.34, 41.6355, 0.00234636, NaN, NaN, NaN, 0.0372337, "- N/A -   "
1.38, 42.579, 0.002404667, NaN, NaN, NaN, 0.04089605, "- N/A -   "
1.42, 43.40467, 0.00246298, NaN, NaN, NaN, 0.0445584, "- N/A -   "
1.46, 44.4662, 0.00252684, NaN, NaN, NaN, 0.04577916, "- N/A -   "
1.5, 45.5277, 0.00259626, NaN, NaN, NaN, 0.0445584, "- N/A -   "
1.54, 46.5893, 0.0026629, NaN, NaN, NaN, 0.0445584, "- N/A -   "
1.58, 47.65078, 0.00273232, NaN, NaN, NaN, 0.0445584, "- N/A -   "
1.62, 48.7123, 0.00280174, NaN, NaN, NaN, 0.04211683, "- N/A -   "
1.66, 50.0097, 0.00287949, NaN, NaN, NaN, 0.0372337, "- N/A -   "
1.7, 51.30715, 0.00296002, NaN, NaN, NaN, 0.0323506, "- N/A -   "
1.74, 52.36868, 0.003032213, NaN, NaN, NaN, 0.0299091, "- N/A -   "
1.78, 53.4302, 0.003098855, NaN, NaN, NaN, 0.0299091, "- N/A -   "
1.82, 54.3738, 0.00315994, NaN, NaN, NaN, 0.03112983, "- N/A -   "
1.86, 55.55326, 0.003226586, NaN, NaN, NaN, 0.0323506, "- N/A -   "
1.9, 56.4968, 0.00328767, NaN, NaN, NaN, 0.0335714, "- N/A -   "
1.94, 57.44042, 0.00335154, NaN, NaN, NaN, 0.0347922, "- N/A -   "
1.98, 58.5019, 0.003415405, NaN, NaN, NaN, 0.03601294, "- N/A -   "
2.02, 59.68142, 0.00348482, NaN, NaN, NaN, 0.0347922, "- N/A -   "
2.06, 60.625, 0.00354869, NaN, NaN, NaN, 0.0372337, "- N/A -   "
2.1, 61.6865, 0.003607, NaN, NaN, NaN, 0.0396753, "- N/A -   "
2.14, 62.5122, 0.00366531, NaN, NaN, NaN, 0.0433376, "- N/A -   "
2.18, 63.5737, 0.00373195, NaN, NaN, NaN, 0.0445584, "- N/A -   "
2.22, 64.6352, 0.00379582, NaN, NaN, NaN, 0.0445584, "- N/A -   "
2.26, 65.93263, 0.00387079, NaN, NaN, NaN, 0.04211683, "- N/A -   "
2.3, 67.23006, 0.00394854, NaN, NaN, NaN, 0.03601294, "- N/A -   "
2.34, 68.40953, 0.00402351, NaN, NaN, NaN, 0.0323506, "- N/A -   "
2.38, 69.707, 0.004095709, NaN, NaN, NaN, 0.0299091, "- N/A -   "
2.42, 70.6505, 0.00416235, NaN, NaN, NaN, 0.0299091, "- N/A -   "
2.46, 71.71206, 0.00422344, NaN, NaN, NaN, 0.0323506, "- N/A -   "
2.5, 72.89154, 0.004287305, NaN, NaN, NaN, 0.0335714, "- N/A -   "
2.54, 74.189, 0.00435672, NaN, NaN, NaN, 0.0335714, "- N/A -   "
2.58, 75.25049, 0.004423366, NaN, NaN, NaN, 0.0323506, "- N/A -   "
2.62, 76.5479, 0.004492785, NaN, NaN, NaN, 0.03112983, "- N/A -   "
2.66, 77.72738, 0.004553873, NaN, NaN, NaN, 0.0347922, "- N/A -   "
2.7, 78.67096, 0.004614962, NaN, NaN, NaN, 0.03601294, "- N/A -   "
2.74, 79.73249, 0.00467605, NaN, NaN, NaN, 0.0396753, "- N/A -   "
2.78, 80.794, 0.00473714, NaN, NaN, NaN, 0.04089605, "- N/A -   "
2.82, 81.97349, 0.004801004, NaN, NaN, NaN, 0.04211683, "- N/A -   "
2.86, 83.15297, 0.0048732, NaN, NaN, NaN, 0.0396753, "- N/A -   "
[...]
37.24, 1442.9, 0.0621881, NaN, NaN, NaN, 0.0335714, "- N/A -   "
37.25, 1443.38, 0.0622076, NaN, NaN, NaN, 0.0335714, "- N/A -   "
37.26, 1443.86, 0.06222423, NaN, NaN, NaN, 0.0323506, "- N/A -   "
37.27, 1444.22, 0.0622409, NaN, NaN, NaN, 0.0323506, "- N/A -   "
37.28, 1444.69, 0.0622576, NaN, NaN, NaN, 0.0323506, "- N/A -   "
37.29, 1445.05, 0.0622742, NaN, NaN, NaN, 0.0323506, "- N/A -   "
37.3, 1445.53, 0.0622909, NaN, NaN, NaN, 0.0335714, "- N/A -   "
37.31, 1445.88, 0.0623075, NaN, NaN, NaN, 0.0323506, "- N/A -   "
37.32, 1446.48, 0.0623242, NaN, NaN, NaN, 0.0323506, "- N/A -   "
37.33, 1446.84, 0.0623409, NaN, NaN, NaN, 0.0335714, "- N/A -   "
37.34, 1447.2, 0.0623575, NaN, NaN, NaN, 0.0335714, "- N/A -   "
37.35, 1447.67, 0.0623714, NaN, NaN, NaN, 0.0335714, "- N/A -   "
37.36, 1448.03, 0.0623881, NaN, NaN, NaN, 0.0347922, "- N/A -   "
37.37, 1448.39, 0.0624019, NaN, NaN, NaN, 0.0347922, "- N/A -   "
37.38, 1448.866, 0.0624186, NaN, NaN, NaN, 0.0347922, "- N/A -   "
37.39, 1449.34, 0.0624353, NaN, NaN, NaN, 0.0347922, "- N/A -   "
37.4, 1449.82, 0.0624519, NaN, NaN, NaN, 0.03601294, "- N/A -   "
37.41, 1450.18, 0.06246581, NaN, NaN, NaN, 0.03601294, "- N/A -   "
37.42, 1450.54, 0.06248247, NaN, NaN, NaN, 0.03601294, "- N/A -   "
37.43, 1451.01, 0.06249913, NaN, NaN, NaN, 0.0372337, "- N/A -   "
37.44, 1451.49, 0.062513, NaN, NaN, NaN, 0.0372337, "- N/A -   "
37.45, 1451.85, 0.0625297, NaN, NaN, NaN, 0.0372337, "- N/A -   "
37.46, 1452.32, 0.0625463, NaN, NaN, NaN, 0.0372337, "- N/A -   "
37.47, 1452.682, 0.062563, NaN, NaN, NaN, 0.0372337, "- N/A -   "
37.48, 1453.28, 0.06258243, NaN, NaN, NaN, 0.0372337, "- N/A -   "
37.49, 1453.76, 0.06260187, NaN, NaN, NaN, 0.03601294, "- N/A -   "
37.5, 1454.23, 0.0626213, NaN, NaN, NaN, 0.0347922, "- N/A -   "
37.51, 1454.83, 0.06264074, NaN, NaN, NaN, 0.0335714, "- N/A -   "
37.52, 1455.31, 0.06266018, NaN, NaN, NaN, 0.0323506, "- N/A -   "
37.53, 1455.78, 0.06267684, NaN, NaN, NaN, 0.03112983, "- N/A -   "
37.54, 1456.26, 0.0626935, NaN, NaN, NaN, 0.03112983, "- N/A -   "
37.55, 1456.62, 0.06270739, NaN, NaN, NaN, 0.0323506, "- N/A -   "
37.56, 1456.975, 0.0627213, NaN, NaN, NaN, 0.0335714, "- N/A -   "
37.57, 1457.33, 0.0627352, NaN, NaN, NaN, 0.03601294, "- N/A -   "
37.58, 1457.69, 0.062749, NaN, NaN, NaN, 0.03601294, "- N/A -   "
37.59, 1457.93, 0.0627601, NaN, NaN, NaN, 0.0384545, "- N/A -   "
37.6, 1458.41, 0.0627768, NaN, NaN, NaN, 0.0384545, "- N/A -   "
37.61, 1458.883, 0.06279069, NaN, NaN, NaN, 0.0396753, "- N/A -   "
37.62, 1459.12, 0.06280735, NaN, NaN, NaN, 0.04089605, "- N/A -   "
37.63, 1459.6, 0.06282123, NaN, NaN, NaN, 0.04089605, "- N/A -   "
37.64, 1459.96, 0.06283511, NaN, NaN, NaN, 0.04211683, "- N/A -   "
37.65, 1460.31, 0.06285178, NaN, NaN, NaN, 0.0433376, "- N/A -   "
37.66, 1460.67, 0.06286566, NaN, NaN, NaN, 0.0433376, "- N/A -   "
37.67, 1461.15, 0.06287955, NaN, NaN, NaN, 0.0445584, "- N/A -   "
37.68, 1461.626, 0.06289621, NaN, NaN, NaN, 0.0445584, "- N/A -   "
37.69, 1461.98, 0.06291287, NaN, NaN, NaN, 0.0445584, "- N/A -   "
37.7, 1462.46, 0.0629295, NaN, NaN, NaN, 0.0445584, "- N/A -   "
37.71, 1462.94, 0.0629462, NaN, NaN, NaN, 0.0445584, "- N/A -   "
37.72, 1463.41, 0.0629628, NaN, NaN, NaN, 0.0445584, "- N/A -   "
37.73, 1463.65, 0.06297673, NaN, NaN, NaN, 0.04577916, "- N/A -   "
37.74, 1464.25, 0.0629962, NaN, NaN, NaN, 0.04577916, "- N/A -   "
37.75, 1464.73, 0.06301283, NaN, NaN, NaN, 0.0445584, "- N/A -   "
37.76, 1465.32, 0.06303504, NaN, NaN, NaN, 0.0433376, "- N/A -   "
37.77, 1465.8, 0.0630517, NaN, NaN, NaN, 0.04211683, "- N/A -   "
37.778, 1466.16, 0.06306836, NaN, NaN, NaN, 0.04089605, "- N/A -   "

File: Hamel_ForceTest_Bolt6_Test8.csv
Time, Load (lb), Position (in), AxialStrain (in), TransverseStrain (in), Auxiliary (), Control Out (V), Stress (psi)
0.0, 13.6819, 0.0, NaN, NaN, NaN, -0.007935055, "- N/A -   "
0.01, 13.6819, -2.776752E-6, NaN, NaN, NaN, 6.103888E-4, "- N/A -   "
0.02, 13.6819, 0.0, NaN, NaN, NaN, 0.006714277, "- N/A -   "
0.03, 13.6819, 0.0, NaN, NaN, NaN, 0.0238052, "- N/A -   "
0.04, 13.7999, 5.553504E-6, NaN, NaN, NaN, 0.04089605, "- N/A -   "
0.05, 13.9178, 1.66605e-05, NaN, NaN, NaN, 0.0555454, "- N/A -   "
0.06, 14.1537, 3.054427E-5, NaN, NaN, NaN, 0.0689739, "- N/A -   "
0.07, 14.7434, 5.27583e-05, NaN, NaN, NaN, 0.0799609, "- N/A -   "
0.08, 15.0973, 7.774905E-5, NaN, NaN, NaN, 0.08850638, "- N/A -   "
0.09, 15.687, 0.000105517, NaN, NaN, NaN, 0.095831, "- N/A -   "
0.1, 16.3947, 0.000136061, NaN, NaN, NaN, 0.095831, "- N/A -   "
0.11, 16.86649, 0.000163828, NaN, NaN, NaN, 0.0897272, "- N/A -   "
0.12, 17.4562, 0.000191596, NaN, NaN, NaN, 0.084844, "- N/A -   "
0.13, 17.928, 2.193634E-4, NaN, NaN, NaN, 0.08118171, "- N/A -   "
0.14, 18.3998, 2.415774E-4, NaN, NaN, NaN, 0.07751938, "- N/A -   "
0.15, 18.7536, 0.000266568, NaN, NaN, NaN, 0.07385705, "- N/A -   "
0.16, 19.1075, 0.000288782, NaN, NaN, NaN, 0.07141549, "- N/A -   "
0.17, 19.57928, 3.109962E-4, NaN, NaN, NaN, 0.0701947, "- N/A -   "
0.18, 19.9331, 0.000330433, NaN, NaN, NaN, 0.0689739, "- N/A -   "
0.19, 20.287, 0.000349871, NaN, NaN, NaN, 0.06653238, "- N/A -   "
0.2, 20.52286, 3.69308E-4, NaN, NaN, NaN, 0.0653116, "- N/A -   "
0.21, 20.99465, 0.000388745, NaN, NaN, NaN, 0.0640908, "- N/A -   "
0.22, 21.3485, 4.081825E-4, NaN, NaN, NaN, 0.06287005, "- N/A -   "
0.23, 21.7023, 4.276198E-4, NaN, NaN, NaN, 0.06164927, "- N/A -   "
0.24, 21.93823, 4.442803E-4, NaN, NaN, NaN, 0.06164927, "- N/A -   "
0.25, 22.29207, 0.000463718, NaN, NaN, NaN, 0.06164927, "- N/A -   "
0.26, 22.528, 4.831548E-4, NaN, NaN, NaN, 0.0592077, "- N/A -   "
0.27, 22.9998, 0.000502592, NaN, NaN, NaN, 0.0592077, "- N/A -   "
0.28, 23.3536, 0.000522029, NaN, NaN, NaN, 0.0579869, "- N/A -   "
0.29, 23.7074, 5.414666E-4, NaN, NaN, NaN, 0.05676616, "- N/A -   "
0.3, 24.0613, 0.000560904, NaN, NaN, NaN, 0.0543246, "- N/A -   "
0.31, 24.29718, 0.000580341, NaN, NaN, NaN, 0.0531038, "- N/A -   "
0.32, 24.769, 5.997784E-4, NaN, NaN, NaN, 0.05188305, "- N/A -   "
0.33, 25.0049, 6.219924E-4, NaN, NaN, NaN, 0.05066227, "- N/A -   "
0.34, 25.4767, 6.414297E-4, NaN, NaN, NaN, 0.0494415, "- N/A -   "
0.35, 25.9484, 6.608669E-4, NaN, NaN, NaN, 0.0482207, "- N/A -   "
0.36, 26.0664, 6.803042E-4, NaN, NaN, NaN, 0.04699994, "- N/A -   "
0.37, 26.6561, 6.969647E-4, NaN, NaN, NaN, 0.04577916, "- N/A -   "
0.38, 26.892, 0.000716402, NaN, NaN, NaN, 0.0445584, "- N/A -   "
0.39, 27.1279, 0.000735839, NaN, NaN, NaN, 0.0433376, "- N/A -   "
0.4, 27.5997, 7.552765E-4, NaN, NaN, NaN, 0.04211683, "- N/A -   "
0.41, 27.95355, 7.71937E-4, NaN, NaN, NaN, 0.04211683, "- N/A -   "
0.42, 28.1894, 0.000791374, NaN, NaN, NaN, 0.04089605, "- N/A -   "
0.43, 28.54329, 8.108115E-4, NaN, NaN, NaN, 0.0396753, "- N/A -   "
0.44, 28.89713, 8.302488E-4, NaN, NaN, NaN, 0.0396753, "- N/A -   "
0.45, 29.133, 8.469093E-4, NaN, NaN, NaN, 0.0384545, "- N/A -   "
0.46, 29.6048, 8.663466E-4, NaN, NaN, NaN, 0.0384545, "- N/A -   "
0.51, 31.1381, 9.524259E-4, NaN, NaN, NaN, 0.03601294, "- N/A -   "
0.56, 33.02529, 0.00104684, NaN, NaN, NaN, 0.0323506, "- N/A -   "
0.61, 34.55861, 0.00113291, NaN, NaN, NaN, 0.0299091, "- N/A -   "
0.66, 35.97398, 0.00121066, NaN, NaN, NaN, 0.0335714, "- N/A -   "
0.71, 37.3893, 0.00128286, NaN, NaN, NaN, 0.0372337, "- N/A -   "
0.76, 38.8047, 0.00136339, NaN, NaN, NaN, 0.0384545, "- N/A -   "
0.81, 40.22009, 0.00143836, NaN, NaN, NaN, 0.04211683, "- N/A -   "
0.86, 41.8714, 0.00151888, NaN, NaN, NaN, 0.0433376, "- N/A -   "
0.91, 43.40467, 0.00160219, NaN, NaN, NaN, 0.0433376, "- N/A -   "
0.96, 45.05593, 0.00168549, NaN, NaN, NaN, 0.0433376, "- N/A -   "
1.01, 46.9431, 0.00177434, NaN, NaN, NaN, 0.04089605, "- N/A -   "
1.06, 48.7123, 0.00187153, NaN, NaN, NaN, 0.03601294, "- N/A -   "
1.11, 50.7174, 0.00197149, NaN, NaN, NaN, 0.0286883, "- N/A -   "
1.16, 52.48662, 0.002057573, NaN, NaN, NaN, 0.0274675, "- N/A -   "
1.21, 54.13789, 0.00213532, NaN, NaN, NaN, 0.0286883, "- N/A -   "
1.26, 55.7892, 0.00221585, NaN, NaN, NaN, 0.0299091, "- N/A -   "
1.31, 57.44042, 0.00229637, NaN, NaN, NaN, 0.0323506, "- N/A -   "
1.36, 58.8558, 0.00236857, NaN, NaN, NaN, 0.0372337, "- N/A -   "
1.41, 60.5071, 0.00244354, NaN, NaN, NaN, 0.0396753, "- N/A -   "
1.46, 62.3942, 0.00252962, NaN, NaN, NaN, 0.0384545, "- N/A -   "
1.51, 63.80958, 0.00260459, NaN, NaN, NaN, 0.04211683, "- N/A -   "
1.56, 65.3429, 0.00268234, NaN, NaN, NaN, 0.0445584, "- N/A -   "
1.61, 67.1121, 0.00276287, NaN, NaN, NaN, 0.04577916, "- N/A -   "
1.66, 69.11722, 0.002854501, NaN, NaN, NaN, 0.04211683, "- N/A -   "
1.71, 71.12233, 0.00294891, NaN, NaN, NaN, 0.0384545, "- N/A -   "
1.76, 72.89154, 0.00303777, NaN, NaN, NaN, 0.03601294, "- N/A -   "
1.81, 74.8966, 0.00312662, NaN, NaN, NaN, 0.0323506, "- N/A -   "
1.86, 76.6659, 0.00320715, NaN, NaN, NaN, 0.0335714, "- N/A -   "
1.91, 78.31712, 0.00328767, NaN, NaN, NaN, 0.0347922, "- N/A -   "
1.96, 80.0863, 0.00337098, NaN, NaN, NaN, 0.0347922, "- N/A -   "
2.01, 81.97349, 0.00345983, NaN, NaN, NaN, 0.0323506, "- N/A -   "
2.06, 83.74271, 0.00354036, NaN, NaN, NaN, 0.0335714, "- N/A -   "
2.11, 85.39397, 0.00361811, NaN, NaN, NaN, 0.0372337, "- N/A -   "
2.16, 86.80934, 0.0036903, NaN, NaN, NaN, 0.04089605, "- N/A -   "
2.21, 88.6965, 0.003770829, NaN, NaN, NaN, 0.04211683, "- N/A -   "
2.26, 90.70161, 0.003859685, NaN, NaN, NaN, 0.0396753, "- N/A -   "
2.31, 92.47082, 0.003940211, NaN, NaN, NaN, 0.04211683, "- N/A -   "
2.36, 94.47592, 0.00403184, NaN, NaN, NaN, 0.0372337, "- N/A -   "
2.41, 96.36309, 0.004123477, NaN, NaN, NaN, 0.0335714, "- N/A -   "
2.46, 98.2502, 0.004206779, NaN, NaN, NaN, 0.0335714, "- N/A -   "
2.51, 100.137, 0.00429008, NaN, NaN, NaN, 0.0335714, "- N/A -   "
2.56, 101.907, 0.004376161, NaN, NaN, NaN, 0.0323506, "- N/A -   "
2.61, 103.912, 0.00445946, NaN, NaN, NaN, 0.0323506, "- N/A -   "
2.66, 105.563, 0.004542766, NaN, NaN, NaN, 0.0323506, "- N/A -   "
2.71, 107.686, 0.004631622, NaN, NaN, NaN, 0.03112983, "- N/A -   "
2.76, 109.219, 0.004709371, NaN, NaN, NaN, 0.0323506, "- N/A -   "
2.81, 110.989, 0.0047899, NaN, NaN, NaN, 0.0335714, "- N/A -   "
2.86, 112.522, 0.004862093, NaN, NaN, NaN, 0.0384545, "- N/A -   "
2.91, 114.055, 0.00493429, NaN, NaN, NaN, 0.0433376, "- N/A -   "
2.96, 115.824, 0.00501481, NaN, NaN, NaN, 0.0445584, "- N/A -   "
3.01, 117.594, 0.00509534, NaN, NaN, NaN, 0.04577916, "- N/A -   "
3.06, 119.481, 0.00517864, NaN, NaN, NaN, 0.04699994, "- N/A -   "
3.11, 121.486, 0.00527028, NaN, NaN, NaN, 0.04211683, "- N/A -   "
3.16, 123.845, 0.005370238, NaN, NaN, NaN, 0.0347922, "- N/A -   "
3.21, 125.614, 0.00545632, NaN, NaN, NaN, 0.0335714, "- N/A -   "
3.26, 127.501, 0.005542397, NaN, NaN, NaN, 0.0323506, "- N/A -   "
3.31, 129.27, 0.005622922, NaN, NaN, NaN, 0.0335714, "- N/A -   "
3.36, 131.393, 0.005717332, NaN, NaN, NaN, 0.0299091, "- N/A -   "
3.41, 133.163, 0.00580341, NaN, NaN, NaN, 0.0286883, "- N/A -   "
3.46, 134.696, 0.00587838, NaN, NaN, NaN, 0.03112983, "- N/A -   "
[...]
33.45, 1321.03, 0.05585436, NaN, NaN, NaN, 0.0347922, "- N/A -   "
33.52, 1324.25, 0.0559738, NaN, NaN, NaN, 0.0335714, "- N/A -   "
33.59, 1326.87, 0.05607373, NaN, NaN, NaN, 0.04089605, "- N/A -   "
33.66, 1329.97, 0.0561848, NaN, NaN, NaN, 0.0433376, "- N/A -   "
33.73, 1333.07, 0.0562986, NaN, NaN, NaN, 0.04577916, "- N/A -   "
33.8, 1336.65, 0.0564236, NaN, NaN, NaN, 0.04089605, "- N/A -   "
33.87, 1340.466, 0.05656244, NaN, NaN, NaN, 0.0323506, "- N/A -   "
33.94, 1343.8, 0.0566818, NaN, NaN, NaN, 0.0299091, "- N/A -   "
34.01, 1347.02, 0.0568012, NaN, NaN, NaN, 0.0286883, "- N/A -   "
34.08, 1350.483, 0.05692341, NaN, NaN, NaN, 0.0262467, "- N/A -   "
34.15, 1353.226, 0.0570317, NaN, NaN, NaN, 0.03112983, "- N/A -   "
34.22, 1356.21, 0.05714, NaN, NaN, NaN, 0.0347922, "- N/A -   "
34.29, 1358.83, 0.05723719, NaN, NaN, NaN, 0.04211683, "- N/A -   "
34.36, 1361.69, 0.0573427, NaN, NaN, NaN, 0.0482207, "- N/A -   "
34.43, 1365.15, 0.0574677, NaN, NaN, NaN, 0.0445584, "- N/A -   "
34.5, 1368.85, 0.0575982, NaN, NaN, NaN, 0.0372337, "- N/A -   "
34.57, 1372.31, 0.0577259, NaN, NaN, NaN, 0.0335714, "- N/A -   "
34.64, 1375.76, 0.05785085, NaN, NaN, NaN, 0.0299091, "- N/A -   "
34.71, 1378.865, 0.0579647, NaN, NaN, NaN, 0.0299091, "- N/A -   "
34.78, 1382.2, 0.0580841, NaN, NaN, NaN, 0.0299091, "- N/A -   "
34.85, 1385.19, 0.05819239, NaN, NaN, NaN, 0.0323506, "- N/A -   "
34.92, 1387.45, 0.0582896, NaN, NaN, NaN, 0.04089605, "- N/A -   "
34.99, 1390.55, 0.0583979, NaN, NaN, NaN, 0.0445584, "- N/A -   "
35.06, 1393.89, 0.05852, NaN, NaN, NaN, 0.0433376, "- N/A -   "
35.13, 1397.23, 0.0586394, NaN, NaN, NaN, 0.04089605, "- N/A -   "
35.2, 1400.81, 0.0587672, NaN, NaN, NaN, 0.03601294, "- N/A -   "
35.27, 1404.5, 0.05890324, NaN, NaN, NaN, 0.0274675, "- N/A -   "
35.34, 1407.84, 0.05902264, NaN, NaN, NaN, 0.0286883, "- N/A -   "
35.41, 1410.94, 0.05913371, NaN, NaN, NaN, 0.0299091, "- N/A -   "
35.48, 1413.57, 0.0592392, NaN, NaN, NaN, 0.03601294, "- N/A -   "
35.55, 1416.91, 0.0593531, NaN, NaN, NaN, 0.0372337, "- N/A -   "
35.62, 1419.77, 0.0594614, NaN, NaN, NaN, 0.0396753, "- N/A -   "
35.69, 1422.51, 0.0595669, NaN, NaN, NaN, 0.0445584, "- N/A -   "
35.76, 1425.85, 0.0596807, NaN, NaN, NaN, 0.04577916, "- N/A -   "
35.83, 1429.55, 0.059814, NaN, NaN, NaN, 0.0384545, "- N/A -   "
35.9, 1433.01, 0.0599417, NaN, NaN, NaN, 0.0335714, "- N/A -   "
35.97, 1435.87, 0.0600528, NaN, NaN, NaN, 0.0372337, "- N/A -   "
36.04, 1438.968, 0.0601639, NaN, NaN, NaN, 0.0384545, "- N/A -   "
36.11, 1442.43, 0.06028606, NaN, NaN, NaN, 0.03601294, "- N/A -   "
36.18, 1445.88, 0.060411, NaN, NaN, NaN, 0.0335714, "- N/A -   "
36.25, 1448.75, 0.0605193, NaN, NaN, NaN, 0.03601294, "- N/A -   "
36.32, 1451.49, 0.060622, NaN, NaN, NaN, 0.04211683, "- N/A -   "
36.39, 1454.95, 0.0607442, NaN, NaN, NaN, 0.0396753, "- N/A -   "
36.46, 1458.17, 0.06086085, NaN, NaN, NaN, 0.0396753, "- N/A -   "
36.53, 1461.626, 0.0609858, NaN, NaN, NaN, 0.03601294, "- N/A -   "
36.6, 1464.73, 0.0611024, NaN, NaN, NaN, 0.03601294, "- N/A -   "
36.67, 1468.07, 0.0612218, NaN, NaN, NaN, 0.0347922, "- N/A -   "
36.74, 1471.52, 0.0613468, NaN, NaN, NaN, 0.0323506, "- N/A -   "
36.81, 1474.62, 0.0614634, NaN, NaN, NaN, 0.03112983, "- N/A -   "
36.88, 1477.61, 0.0615745, NaN, NaN, NaN, 0.0335714, "- N/A -   "
36.95, 1480.83, 0.0616911, NaN, NaN, NaN, 0.0335714, "- N/A -   "
37.02, 1483.69, 0.0617938, NaN, NaN, NaN, 0.0396753, "- N/A -   "
37.09, 1486.55, 0.06190213, NaN, NaN, NaN, 0.0445584, "- N/A -   "
37.16, 1489.89, 0.0620188, NaN, NaN, NaN, 0.0433376, "- N/A -   "
37.19, 1491.32, 0.0620715, NaN, NaN, NaN, 0.04211683, "- N/A -   "