Folder: DigitalTwins-Machine-Learning/2_Tensile_Data (part 23)

File: Hamel_ForceTest_Bolt6_Test11.csv
Time, Load (lb), Position (in), AxialStrain (in), TransverseStrain (in), Auxiliary (), Control Out (V), Stress (psi)
0.0, 9.907588, 0.0, NaN, NaN, NaN, -0.006714277, "- N/A -   "
0.01, 9.78964, 2.776752E-6, NaN, NaN, NaN, -6.103888E-4, "- N/A -   "
0.02, 9.907588, 2.776752E-6, NaN, NaN, NaN, 0.006714277, "- N/A -   "
0.03, 9.907588, 2.776752E-6, NaN, NaN, NaN, 0.01525972, "- N/A -   "
0.04, 9.907588, 5.553504E-6, NaN, NaN, NaN, 0.0335714, "- N/A -   "
0.05, 10.1435, 1.1107e-05, NaN, NaN, NaN, 0.05066227, "- N/A -   "
0.06, 10.26143, 2.49908e-05, NaN, NaN, NaN, 0.0640908, "- N/A -   "
0.07, 10.6153, 4.16513e-05, NaN, NaN, NaN, 0.0762986, "- N/A -   "
0.08, 11.0871, 6.108854E-5, NaN, NaN, NaN, 0.0872856, "- N/A -   "
0.09, 11.6768, 8.885606E-5, NaN, NaN, NaN, 0.095831, "- N/A -   "
0.1, 12.2665, 0.000116624, NaN, NaN, NaN, 0.103156, "- N/A -   "
0.11, 12.8563, 0.000147168, NaN, NaN, NaN, 0.09949338, "- N/A -   "
0.12, 13.564, 0.000177712, NaN, NaN, NaN, 0.09338949, "- N/A -   "
0.13, 14.0357, 0.00020548, NaN, NaN, NaN, 0.08850638, "- N/A -   "
0.14, 14.6255, 0.000233247, NaN, NaN, NaN, 0.08362327, "- N/A -   "
0.15, 15.2152, 2.582379E-4, NaN, NaN, NaN, 0.08118171, "- N/A -   "
0.16, 15.687, 2.832287E-4, NaN, NaN, NaN, 0.07751938, "- N/A -   "
0.17, 16.1588, 0.000308219, NaN, NaN, NaN, 0.07263627, "- N/A -   "
0.18, 16.6306, 0.000327657, NaN, NaN, NaN, 0.07141549, "- N/A -   "
0.19, 16.9844, 0.000349871, NaN, NaN, NaN, 0.0701947, "- N/A -   "
0.2, 17.3383, 3.69308E-4, NaN, NaN, NaN, 0.0689739, "- N/A -   "
0.21, 17.8101, 0.000388745, NaN, NaN, NaN, 0.06653238, "- N/A -   "
0.22, 18.2819, 4.081825E-4, NaN, NaN, NaN, 0.0653116, "- N/A -   "
0.23, 18.7536, 0.000430397, NaN, NaN, NaN, 0.0640908, "- N/A -   "
0.24, 19.1075, 0.000449834, NaN, NaN, NaN, 0.06287005, "- N/A -   "
0.25, 19.4613, 0.000469271, NaN, NaN, NaN, 0.0604285, "- N/A -   "
0.26, 19.9331, 4.887083E-4, NaN, NaN, NaN, 0.0592077, "- N/A -   "
0.27, 20.287, 5.081456E-4, NaN, NaN, NaN, 0.0579869, "- N/A -   "
0.28, 20.6408, 0.000527583, NaN, NaN, NaN, 0.05676616, "- N/A -   "
0.29, 21.1126, 5.470201E-4, NaN, NaN, NaN, 0.05676616, "- N/A -   "
0.3, 21.46644, 5.664574E-4, NaN, NaN, NaN, 0.0555454, "- N/A -   "
0.31, 21.93823, 5.858946E-4, NaN, NaN, NaN, 0.0543246, "- N/A -   "
0.32, 22.29207, 6.053319E-4, NaN, NaN, NaN, 0.05188305, "- N/A -   "
0.33, 22.7639, 0.000627546, NaN, NaN, NaN, 0.05066227, "- N/A -   "
0.34, 23.2357, 0.000646983, NaN, NaN, NaN, 0.0482207, "- N/A -   "
0.35, 23.4715, 0.00066642, NaN, NaN, NaN, 0.04699994, "- N/A -   "
0.36, 24.0613, 6.858577E-4, NaN, NaN, NaN, 0.04577916, "- N/A -   "
0.37, 24.29718, 0.000705295, NaN, NaN, NaN, 0.0445584, "- N/A -   "
0.38, 24.769, 0.000724732, NaN, NaN, NaN, 0.0433376, "- N/A -   "
0.39, 25.1228, 7.413927E-4, NaN, NaN, NaN, 0.0433376, "- N/A -   "
0.4, 25.4767, 7.6083E-4, NaN, NaN, NaN, 0.04211683, "- N/A -   "
0.41, 25.9484, 0.000780267, NaN, NaN, NaN, 0.04211683, "- N/A -   "
0.42, 26.3023, 7.969278E-4, NaN, NaN, NaN, 0.04089605, "- N/A -   "
0.43, 26.5382, 0.000813588, NaN, NaN, NaN, 0.04089605, "- N/A -   "
0.44, 27.01, 0.000833026, NaN, NaN, NaN, 0.04089605, "- N/A -   "
0.45, 27.3638, 8.524628E-4, NaN, NaN, NaN, 0.0396753, "- N/A -   "
0.46, 27.7177, 8.691233E-4, NaN, NaN, NaN, 0.0384545, "- N/A -   "
0.47, 28.0715, 8.857838E-4, NaN, NaN, NaN, 0.0384545, "- N/A -   "
0.48, 28.54329, 9.052211E-4, NaN, NaN, NaN, 0.0384545, "- N/A -   "
0.49, 28.89713, 9.218816E-4, NaN, NaN, NaN, 0.0384545, "- N/A -   "
0.5, 29.251, 9.385421E-4, NaN, NaN, NaN, 0.0372337, "- N/A -   "
0.51, 29.6048, 0.000957979, NaN, NaN, NaN, 0.03601294, "- N/A -   "
0.84, 40.69188, 0.00149112, NaN, NaN, NaN, 0.0433376, "- N/A -   "
1.17, 53.4302, 0.00207979, NaN, NaN, NaN, 0.0262467, "- N/A -   "
1.5, 64.6352, 0.00259349, NaN, NaN, NaN, 0.04211683, "- N/A -   "
1.83, 77.49149, 0.003165497, NaN, NaN, NaN, 0.0323506, "- N/A -   "
2.16, 89.52213, 0.00370141, NaN, NaN, NaN, 0.0384545, "- N/A -   "
2.49, 102.6143, 0.00425676, NaN, NaN, NaN, 0.03601294, "- N/A -   "
2.82, 115.824, 0.004812111, NaN, NaN, NaN, 0.0335714, "- N/A -   "
3.15, 128.917, 0.005359131, NaN, NaN, NaN, 0.0347922, "- N/A -   "
3.48, 142.481, 0.0059117, NaN, NaN, NaN, 0.0347922, "- N/A -   "
3.81, 156.0445, 0.006461501, NaN, NaN, NaN, 0.0347922, "- N/A -   "
4.14, 169.255, 0.00700574, NaN, NaN, NaN, 0.0372337, "- N/A -   "
4.47, 182.937, 0.007549988, NaN, NaN, NaN, 0.04089605, "- N/A -   "
4.8, 196.854, 0.008108115, NaN, NaN, NaN, 0.03601294, "- N/A -   "
5.13, 211.008, 0.00866624, NaN, NaN, NaN, 0.0323506, "- N/A -   "
5.46, 224.808, 0.009216039, NaN, NaN, NaN, 0.0335714, "- N/A -   "
5.79, 238.136, 0.009751953, NaN, NaN, NaN, 0.0396753, "- N/A -   "
6.12, 251.926, 0.01031008, NaN, NaN, NaN, 0.0347922, "- N/A -   "
6.45, 264.769, 0.0108349, NaN, NaN, NaN, 0.04577916, "- N/A -   "
6.78, 279.144, 0.0114263, NaN, NaN, NaN, 0.0274675, "- N/A -   "
7.11, 291.28, 0.0119428, NaN, NaN, NaN, 0.0433376, "- N/A -   "
7.44, 304.7122, 0.0125204, NaN, NaN, NaN, 0.0299091, "- N/A -   "
7.77, 316.495, 0.0130396, NaN, NaN, NaN, 0.0433376, "- N/A -   "
8.1, 329.22, 0.0136116, NaN, NaN, NaN, 0.0335714, "- N/A -   "
8.43, 340.885, 0.0141392, NaN, NaN, NaN, 0.04577916, "- N/A -   "
8.76, 353.374, 0.0147085, NaN, NaN, NaN, 0.0372337, "- N/A -   "
9.09, 365.393, 0.0152499, NaN, NaN, NaN, 0.0396753, "- N/A -   "
9.42, 377.6465, 0.0158136, NaN, NaN, NaN, 0.0335714, "- N/A -   "
9.75, 389.3113, 0.0163495, NaN, NaN, NaN, 0.04089605, "- N/A -   "
10.08, 402.0365, 0.0169076, NaN, NaN, NaN, 0.03601294, "- N/A -   "
10.41, 413.937, 0.0174436, NaN, NaN, NaN, 0.04211683, "- N/A -   "
10.74, 426.898, 0.0180072, NaN, NaN, NaN, 0.03601294, "- N/A -   "
11.07, 438.9161, 0.0185404, NaN, NaN, NaN, 0.0433376, "- N/A -   "
11.4, 452.348, 0.0191207, NaN, NaN, NaN, 0.0299091, "- N/A -   "
11.73, 464.484, 0.0196483, NaN, NaN, NaN, 0.0396753, "- N/A -   "
12.06, 477.7987, 0.02021753, NaN, NaN, NaN, 0.03112983, "- N/A -   "
12.39, 489.935, 0.0207451, NaN, NaN, NaN, 0.04089605, "- N/A -   "
12.72, 503.2491, 0.0213116, NaN, NaN, NaN, 0.0347922, "- N/A -   "
13.05, 516.22, 0.02185859, NaN, NaN, NaN, 0.03601294, "- N/A -   "
13.38, 529.4679, 0.0224139, NaN, NaN, NaN, 0.0335714, "- N/A -   "
13.71, 542.4788, 0.0229665, NaN, NaN, NaN, 0.0323506, "- N/A -   "
14.04, 555.726, 0.0235108, NaN, NaN, NaN, 0.0347922, "- N/A -   "
14.37, 568.8554, 0.0240606, NaN, NaN, NaN, 0.0347922, "- N/A -   "
14.7, 582.103, 0.0246048, NaN, NaN, NaN, 0.0372337, "- N/A -   "
15.03, 595.705, 0.0251601, NaN, NaN, NaN, 0.0347922, "- N/A -   "
15.36, 609.1892, 0.0257099, NaN, NaN, NaN, 0.03601294, "- N/A -   "
15.69, 623.0281, 0.0262681, NaN, NaN, NaN, 0.03112983, "- N/A -   "
16.02, 636.6304, 0.0268068, NaN, NaN, NaN, 0.03601294, "- N/A -   "
16.35, 650.7058, 0.0273704, NaN, NaN, NaN, 0.03112983, "- N/A -   "
16.68, 663.598, 0.02788692, NaN, NaN, NaN, 0.04577916, "- N/A -   "
17.01, 678.62, 0.0284673, NaN, NaN, NaN, 0.0323506, "- N/A -   "
17.34, 691.9858, 0.0289865, NaN, NaN, NaN, 0.04577916, "- N/A -   "
17.67, 707.007, 0.0295752, NaN, NaN, NaN, 0.0286883, "- N/A -   "
18, 720.373, 0.0300889, NaN, NaN, NaN, 0.0445584, "- N/A -   "
18.33, 735.395, 0.0306637, NaN, NaN, NaN, 0.0335714, "- N/A -   "
18.66, 748.997, 0.0311857, NaN, NaN, NaN, 0.04577916, "- N/A -   "
[...]
30.87, 1304.571, 0.05153929, NaN, NaN, NaN, 0.0445584, "- N/A -   "
31.2, 1320.79, 0.0521169, NaN, NaN, NaN, 0.0323506, "- N/A -   "
31.53, 1335.46, 0.05264166, NaN, NaN, NaN, 0.0433376, "- N/A -   "
31.86, 1351.79, 0.053222, NaN, NaN, NaN, 0.0299091, "- N/A -   "
32.19, 1366.58, 0.0537468, NaN, NaN, NaN, 0.04089605, "- N/A -   "
32.52, 1382.56, 0.0543216, NaN, NaN, NaN, 0.0299091, "- N/A -   "
32.85, 1397.349, 0.0548492, NaN, NaN, NaN, 0.0396753, "- N/A -   "
33.18, 1412.97, 0.0554073, NaN, NaN, NaN, 0.03601294, "- N/A -   "
33.51, 1428.47, 0.0559627, NaN, NaN, NaN, 0.0335714, "- N/A -   "
33.84, 1443.98, 0.0565125, NaN, NaN, NaN, 0.0335714, "- N/A -   "
34.17, 1459.36, 0.0570678, NaN, NaN, NaN, 0.03112983, "- N/A -   "
34.5, 1474.27, 0.05760094, NaN, NaN, NaN, 0.0384545, "- N/A -   "
34.83, 1489.89, 0.0581591, NaN, NaN, NaN, 0.0347922, "- N/A -   "
35.16, 1504.8, 0.0586978, NaN, NaN, NaN, 0.0396753, "- N/A -   "
35.49, 1520.54, 0.05925866, NaN, NaN, NaN, 0.03601294, "- N/A -   "
35.82, 1535.8, 0.05980568, NaN, NaN, NaN, 0.0384545, "- N/A -   "
36.15, 1551.42, 0.0603666, NaN, NaN, NaN, 0.0335714, "- N/A -   "
36.48, 1566.45, 0.0609025, NaN, NaN, NaN, 0.0384545, "- N/A -   "
36.81, 1582.43, 0.06147173, NaN, NaN, NaN, 0.0299091, "- N/A -   "
37.14, 1596.5, 0.0619799, NaN, NaN, NaN, 0.0482207, "- N/A -   "
37.47, 1613.2, 0.0625713, NaN, NaN, NaN, 0.0299091, "- N/A -   "
37.8, 1627.51, 0.06309058, NaN, NaN, NaN, 0.0433376, "- N/A -   "
38.13, 1643.84, 0.0636737, NaN, NaN, NaN, 0.0286883, "- N/A -   "
38.46, 1657.8, 0.06418461, NaN, NaN, NaN, 0.04577916, "- N/A -   "
38.79, 1674.01, 0.06476218, NaN, NaN, NaN, 0.0335714, "- N/A -   "
39.12, 1688.68, 0.0652898, NaN, NaN, NaN, 0.0433376, "- N/A -   "
39.45, 1704.54, 0.06585622, NaN, NaN, NaN, 0.03601294, "- N/A -   "
39.78, 1719.57, 0.06639769, NaN, NaN, NaN, 0.0396753, "- N/A -   "
40.11, 1735.31, 0.06696137, NaN, NaN, NaN, 0.0347922, "- N/A -   "
40.44, 1749.977, 0.06750006, NaN, NaN, NaN, 0.0396753, "- N/A -   "
40.77, 1765.72, 0.0680665, NaN, NaN, NaN, 0.0323506, "- N/A -   "
41.1, 1780.148, 0.0685941, NaN, NaN, NaN, 0.0433376, "- N/A -   "
41.43, 1795.89, 0.06916333, NaN, NaN, NaN, 0.0335714, "- N/A -   "
41.76, 1809.96, 0.06968536, NaN, NaN, NaN, 0.04577916, "- N/A -   "
42.09, 1826.3, 0.07027404, NaN, NaN, NaN, 0.0286883, "- N/A -   "
42.42, 1840.73, 0.0708044, NaN, NaN, NaN, 0.0372337, "- N/A -   "
42.75, 1856.23, 0.0713681, NaN, NaN, NaN, 0.0323506, "- N/A -   "
43.08, 1870.9, 0.07190121, NaN, NaN, NaN, 0.0384545, "- N/A -   "
43.41, 1886.4, 0.07246489, NaN, NaN, NaN, 0.0335714, "- N/A -   "
43.74, 1901.43, 0.07301746, NaN, NaN, NaN, 0.03112983, "- N/A -   "
44.07, 1916.21, 0.0735562, NaN, NaN, NaN, 0.0372337, "- N/A -   "
44.4, 1931.598, 0.07411706, NaN, NaN, NaN, 0.0323506, "- N/A -   "
44.73, 1946.39, 0.07466131, NaN, NaN, NaN, 0.0347922, "- N/A -   "
45.06, 1961.29, 0.0752111, NaN, NaN, NaN, 0.0347922, "- N/A -   "
45.39, 1975.84, 0.0757442, NaN, NaN, NaN, 0.04211683, "- N/A -   "
45.72, 1991.1, 0.0763051, NaN, NaN, NaN, 0.0372337, "- N/A -   "
46.05, 2006.25, 0.07686327, NaN, NaN, NaN, 0.0335714, "- N/A -   "
46.38, 2021.51, 0.0774242, NaN, NaN, NaN, 0.0286883, "- N/A -   "
46.71, 2035.23, 0.07794898, NaN, NaN, NaN, 0.04089605, "- N/A -   "
47.04, 2050.49, 0.07851265, NaN, NaN, NaN, 0.0347922, "- N/A -   "
47.37, 2064.564, 0.07904024, NaN, NaN, NaN, 0.0433376, "- N/A -   "
47.7, 2079.95, 0.0796178, NaN, NaN, NaN, 0.0323506, "- N/A -   "
48.03, 2093.66, 0.08013705, NaN, NaN, NaN, 0.0445584, "- N/A -   "
48.36, 2109.164, 0.08072018, NaN, NaN, NaN, 0.0299091, "- N/A -   "
48.586, 2117.87, 0.08106171, NaN, NaN, NaN, 0.04577916, "- N/A -   "

File: Hamel_ForceTest_Bolt7_Test1.csv
Time, Load (lb), Position (in), AxialStrain (in), TransverseStrain (in), Auxiliary (), Control Out (V), Stress (psi)
0.0,1.06153,0.0, NaN, NaN, NaN,0.09705182," ""- N/A -   """
0.00999999,1.29742,2.77675e-05, NaN, NaN, NaN,0.09338949," ""- N/A -   """
0.14,3.53842,0.0003165497, NaN, NaN, NaN,0.0604285," ""- N/A -   """
0.27,6.251216,0.0005942249, NaN, NaN, NaN,0.0335714," ""- N/A -   """
0.4,8.964007,0.0008080348, NaN, NaN, NaN,0.0347922," ""- N/A -   """
0.53,11.5589,0.001019068, NaN, NaN, NaN,0.0372337," ""- N/A -   """
0.66,14.2716,0.00122177, NaN, NaN, NaN,0.0433376," ""- N/A -   """
0.79,17.3383,0.00145224, NaN, NaN, NaN,0.0372337," ""- N/A -   """
0.92,20.287,0.00167993, NaN, NaN, NaN,0.0323506," ""- N/A -   """
1.05,23.4715,0.00189374, NaN, NaN, NaN,0.0335714," ""- N/A -   """
1.18,26.6561,0.00211033, NaN, NaN, NaN,0.0335714," ""- N/A -   """
1.31,29.4869,0.002304704, NaN, NaN, NaN,0.0433376," ""- N/A -   """
1.44,33.1432,0.0025324, NaN, NaN, NaN,0.0384545," ""- N/A -   """
1.57,36.6817,0.002751761, NaN, NaN, NaN,0.0372337," ""- N/A -   """
1.7,40.57393,0.00298223, NaN, NaN, NaN,0.03112983," ""- N/A -   """
1.83,44.2303,0.00319326, NaN, NaN, NaN,0.0347922," ""- N/A -   """
1.96,47.8867,0.00340152, NaN, NaN, NaN,0.0372337," ""- N/A -   """
2.09,51.4251,0.003604224, NaN, NaN, NaN,0.0433376," ""- N/A -   """
2.22,56.02505,0.003837471, NaN, NaN, NaN,0.03601294," ""- N/A -   """
2.35,60.27116,0.00405961, NaN, NaN, NaN,0.0335714," ""- N/A -   """
2.48,64.75317,0.004284528, NaN, NaN, NaN,0.0299091," ""- N/A -   """
2.61,68.6454,0.00449001, NaN, NaN, NaN,0.0347922," ""- N/A -   """
2.74,72.65564,0.004687157, NaN, NaN, NaN,0.0433376," ""- N/A -   """
2.87,77.6094,0.004917627, NaN, NaN, NaN,0.0384545," ""- N/A -   """
3,82.32734,0.00514254, NaN, NaN, NaN,0.0347922," ""- N/A -   """
3.13,87.28113,0.00537024, NaN, NaN, NaN,0.0286883," ""- N/A -   """
3.26,91.52724,0.00557294, NaN, NaN, NaN,0.03601294," ""- N/A -   """
3.39,95.7733,0.00576731, NaN, NaN, NaN,0.0445584," ""- N/A -   """
3.52,100.963,0.005995007, NaN, NaN, NaN,0.04211683," ""- N/A -   """
3.65,106.507,0.006239361, NaN, NaN, NaN,0.0286883," ""- N/A -   """
3.78,111.107,0.006447618, NaN, NaN, NaN,0.0323506," ""- N/A -   """
3.91,115.706,0.0066531, NaN, NaN, NaN,0.0384545," ""- N/A -   """
4.04,120.424,0.00685858, NaN, NaN, NaN,0.0433376," ""- N/A -   """
4.17,125.378,0.00707516, NaN, NaN, NaN,0.04211683," ""- N/A -   """
4.3,131.04,0.007319518, NaN, NaN, NaN,0.03112983," ""- N/A -   """
4.43,135.758,0.007525, NaN, NaN, NaN,0.0347922," ""- N/A -   """
4.56,140.829,0.007747138, NaN, NaN, NaN,0.0323506," ""- N/A -   """
4.69,145.311,0.007944287, NaN, NaN, NaN,0.04211683," ""- N/A -   """
4.82,150.383,0.008158097, NaN, NaN, NaN,0.04211683," ""- N/A -   """
4.95,155.573,0.008388568, NaN, NaN, NaN,0.03601294," ""- N/A -   """
5.08,160.409,0.00860793, NaN, NaN, NaN,0.0347922," ""- N/A -   """
5.21,165.4803,0.00883007, NaN, NaN, NaN,0.0323506," ""- N/A -   """
5.34,170.316,0.009043881, NaN, NaN, NaN,0.0335714," ""- N/A -   """
5.47,174.6802,0.009246584, NaN, NaN, NaN,0.0396753," ""- N/A -   """
5.6,179.3981,0.009457616, NaN, NaN, NaN,0.04211683," ""- N/A -   """
5.73,184.706,0.00969642, NaN, NaN, NaN,0.0335714," ""- N/A -   """
5.86,189.66,0.009918558, NaN, NaN, NaN,0.0299091," ""- N/A -   """
5.99,194.024,0.0101324, NaN, NaN, NaN,0.03112983," ""- N/A -   """
6.12,197.68,0.0103129, NaN, NaN, NaN,0.04699994," ""- N/A -   """
6.25,202.28,0.0105378, NaN, NaN, NaN,0.0445584," ""- N/A -   """
6.38,207.352,0.0107849, NaN, NaN, NaN,0.03112983," ""- N/A -   """
6.51,211.48,0.011007, NaN, NaN, NaN,0.0274675," ""- N/A -   """
6.64,215.254,0.0112153, NaN, NaN, NaN,0.0323506," ""- N/A -   """
6.77,218.793,0.0114069, NaN, NaN, NaN,0.04211683," ""- N/A -   """
6.9,223.039,0.0116207, NaN, NaN, NaN,0.0433376," ""- N/A -   """
7.03,227.757,0.0118623, NaN, NaN, NaN,0.0335714," ""- N/A -   """
7.16,232.003,0.0120844, NaN, NaN, NaN,0.0299091," ""- N/A -   """
7.29,235.895,0.0122871, NaN, NaN, NaN,0.03601294," ""- N/A -   """
7.42,240.0231,0.0124954, NaN, NaN, NaN,0.0396753," ""- N/A -   """
7.55,243.7961,0.0126981, NaN, NaN, NaN,0.04699994," ""- N/A -   """
7.68,248.98,0.012948, NaN, NaN, NaN,0.03112983," ""- N/A -   """
7.81,253.222,0.0131646, NaN, NaN, NaN,0.03112983," ""- N/A -   """
7.94,257.4639,0.0133812, NaN, NaN, NaN,0.03112983," ""- N/A -   """
8.07,261.706,0.0135894, NaN, NaN, NaN,0.03601294," ""- N/A -   """
8.2,265.83,0.0137977, NaN, NaN, NaN,0.0396753," ""- N/A -   """
8.33,270.189,0.0140143, NaN, NaN, NaN,0.0396753," ""- N/A -   """
8.46,274.313,0.0142281, NaN, NaN, NaN,0.04211683," ""- N/A -   """
8.59,279.144,0.0144558, NaN, NaN, NaN,0.03601294," ""- N/A -   """
8.72,283.6213,0.0146807, NaN, NaN, NaN,0.0323506," ""- N/A -   """
8.85,287.7452,0.01488339, NaN, NaN, NaN,0.0396753," ""- N/A -   """
8.98,291.987,0.0150889, NaN, NaN, NaN,0.0433376," ""- N/A -   """
9.11,296.936,0.0153304, NaN, NaN, NaN,0.0323506," ""- N/A -   """
9.24,301.413,0.01554148, NaN, NaN, NaN,0.0347922," ""- N/A -   """
9.37,306.2439,0.0157747, NaN, NaN, NaN,0.0274675," ""- N/A -   """
9.5,309.7787,0.015958, NaN, NaN, NaN,0.04211683," ""- N/A -   """
9.63,314.374,0.0161718, NaN, NaN, NaN,0.0433376," ""- N/A -   """
9.76,319.44,0.0164078, NaN, NaN, NaN,0.0347922," ""- N/A -   """
9.89,324.2713,0.0166383, NaN, NaN, NaN,0.0286883," ""- N/A -   """
10.02,328.7487,0.0168521, NaN, NaN, NaN,0.0299091," ""- N/A -   """
10.15,332.4013,0.01703815, NaN, NaN, NaN,0.0433376," ""- N/A -   """
10.28,336.997,0.0172547, NaN, NaN, NaN,0.0445584," ""- N/A -   """
10.41,342.181,0.017488, NaN, NaN, NaN,0.03601294," ""- N/A -   """
10.54,347.247,0.01772123, NaN, NaN, NaN,0.0286883," ""- N/A -   """
10.67,351.489,0.01792671, NaN, NaN, NaN,0.0347922," ""- N/A -   """
10.8,356.084,0.0181433, NaN, NaN, NaN,0.0335714," ""- N/A -   """
10.93,360.326,0.0183377, NaN, NaN, NaN,0.0433376," ""- N/A -   """
11.06,365.628,0.01857647, NaN, NaN, NaN,0.0335714," ""- N/A -   """
11.19,370.223,0.0187931, NaN, NaN, NaN,0.0347922," ""- N/A -   """
11.32,374.937,0.0190041, NaN, NaN, NaN,0.03601294," ""- N/A -   """
11.45,379.65,0.0192207, NaN, NaN, NaN,0.03601294," ""- N/A -   """
11.58,384.245,0.0194289, NaN, NaN, NaN,0.0396753," ""- N/A -   """
11.71,389.076,0.0196511, NaN, NaN, NaN,0.0372337," ""- N/A -   """
11.84,394.024,0.0198732, NaN, NaN, NaN,0.0347922," ""- N/A -   """
11.97,398.855,0.02009813, NaN, NaN, NaN,0.0323506," ""- N/A -   """
12.1,403.4504,0.0203092, NaN, NaN, NaN,0.0347922," ""- N/A -   """
12.23,408.163,0.0205202, NaN, NaN, NaN,0.0372337," ""- N/A -   """
12.36,412.641,0.0207229, NaN, NaN, NaN,0.04211683," ""- N/A -   """
12.49,418.1787,0.0209589, NaN, NaN, NaN,0.0335714," ""- N/A -   """
12.62,422.6561,0.02116718, NaN, NaN, NaN,0.0384545," ""- N/A -   """
12.75,428.076,0.0214004, NaN, NaN, NaN,0.03112983," ""- N/A -   """
12.88,432.2,0.0216004, NaN, NaN, NaN,0.0384545," ""- N/A -   """
13.01,436.7952,0.02180028, NaN, NaN, NaN,0.04577916," ""- N/A -   """
13.14,442.215,0.0220335, NaN, NaN, NaN,0.0384545," ""- N/A -   """
13.27,447.753,0.0222723, NaN, NaN, NaN,0.0299091," ""- N/A -   """
13.4,452.584,0.02249169, NaN, NaN, NaN,0.0286883," ""- N/A -   """
13.53,456.943,0.0226861, NaN, NaN, NaN,0.0372337," ""- N/A -   """
13.66,461.657,0.02288599, NaN, NaN, NaN,0.0445584," ""- N/A -   """
[...]
25.61,954.451,0.0428314, NaN, NaN, NaN,0.0323506," ""- N/A -   """
25.69,957.9994,0.04296468, NaN, NaN, NaN,0.03112983," ""- N/A -   """
25.77,961.3113,0.0430952, NaN, NaN, NaN,0.0323506," ""- N/A -   """
25.85,964.7414,0.0432257, NaN, NaN, NaN,0.0347922," ""- N/A -   """
25.93,967.58,0.0433451, NaN, NaN, NaN,0.04089605," ""- N/A -   """
26.01,970.5372,0.04345894, NaN, NaN, NaN,0.0482207," ""- N/A -   """
26.09,974.5587,0.0436089, NaN, NaN, NaN,0.04089605," ""- N/A -   """
26.17,978.462,0.0437588, NaN, NaN, NaN,0.0347922," ""- N/A -   """
26.25,981.892,0.0438949, NaN, NaN, NaN,0.0335714," ""- N/A -   """
26.33,985.559,0.04403373, NaN, NaN, NaN,0.03112983," ""- N/A -   """
26.41,989.107,0.0441726, NaN, NaN, NaN,0.0299091," ""- N/A -   """
26.49,992.064,0.0442892, NaN, NaN, NaN,0.03601294," ""- N/A -   """
26.57,994.9031,0.0444058, NaN, NaN, NaN,0.0433376," ""- N/A -   """
26.65,997.978,0.04452799, NaN, NaN, NaN,0.0482207," ""- N/A -   """
26.73,1002,0.0446779, NaN, NaN, NaN,0.04089605," ""- N/A -   """
26.81,1005.9,0.0448251, NaN, NaN, NaN,0.03601294," ""- N/A -   """
26.89,1009.57,0.04496394, NaN, NaN, NaN,0.0323506," ""- N/A -   """
26.97,1013.12,0.0451056, NaN, NaN, NaN,0.0286883," ""- N/A -   """
27.05,1016.58,0.0452361, NaN, NaN, NaN,0.0299091," ""- N/A -   """
27.13,1020.04,0.0453694, NaN, NaN, NaN,0.03112983," ""- N/A -   """
27.21,1022.9,0.0454804, NaN, NaN, NaN,0.0396753," ""- N/A -   """
27.29,1026,0.0456026, NaN, NaN, NaN,0.04577916," ""- N/A -   """
27.37,1029.22,0.0457248, NaN, NaN, NaN,0.05066227," ""- N/A -   """
27.45,1032.92,0.0458664, NaN, NaN, NaN,0.04577916," ""- N/A -   """
27.53,1037.33,0.04602466, NaN, NaN, NaN,0.0347922," ""- N/A -   """
27.61,1041.14,0.04617461, NaN, NaN, NaN,0.0274675," ""- N/A -   """
27.69,1044.244,0.0462968, NaN, NaN, NaN,0.0323506," ""- N/A -   """
27.77,1047.82,0.04642729, NaN, NaN, NaN,0.0335714," ""- N/A -   """
27.85,1051.28,0.0465606, NaN, NaN, NaN,0.0335714," ""- N/A -   """
27.93,1054.142,0.0466744, NaN, NaN, NaN,0.04211683," ""- N/A -   """
28.01,1057.24,0.0467966, NaN, NaN, NaN,0.04699994," ""- N/A -   """
28.09,1061.18,0.04694654, NaN, NaN, NaN,0.0396753," ""- N/A -   """
28.17,1065.471,0.04710204, NaN, NaN, NaN,0.0299091," ""- N/A -   """
28.25,1068.93,0.0472353, NaN, NaN, NaN,0.03112983," ""- N/A -   """
28.33,1071.91,0.0473575, NaN, NaN, NaN,0.0347922," ""- N/A -   """
28.41,1075.73,0.04749634, NaN, NaN, NaN,0.0323506," ""- N/A -   """
28.49,1078.95,0.04762407, NaN, NaN, NaN,0.0347922," ""- N/A -   """
28.57,1082.17,0.0477463, NaN, NaN, NaN,0.0396753," ""- N/A -   """
28.65,1085.74,0.0478795, NaN, NaN, NaN,0.0396753," ""- N/A -   """
28.73,1088.96,0.04801, NaN, NaN, NaN,0.04089605," ""- N/A -   """
28.81,1092.66,0.0481489, NaN, NaN, NaN,0.0384545," ""- N/A -   """
28.89,1096.36,0.04828494, NaN, NaN, NaN,0.0372337," ""- N/A -   """
28.97,1099.82,0.048421, NaN, NaN, NaN,0.03601294," ""- N/A -   """
29.05,1103.393,0.04855706, NaN, NaN, NaN,0.0347922," ""- N/A -   """
29.13,1106.85,0.0486959, NaN, NaN, NaN,0.0335714," ""- N/A -   """
29.21,1110.31,0.04883196, NaN, NaN, NaN,0.03112983," ""- N/A -   """
29.29,1113.29,0.0489486, NaN, NaN, NaN,0.0384545," ""- N/A -   """
29.37,1116.51,0.0490708, NaN, NaN, NaN,0.0433376," ""- N/A -   """
29.45,1119.969,0.049204, NaN, NaN, NaN,0.0445584," ""- N/A -   """
29.53,1124.26,0.0493595, NaN, NaN, NaN,0.0335714," ""- N/A -   """
29.61,1127.72,0.0494956, NaN, NaN, NaN,0.0323506," ""- N/A -   """
29.69,1131.18,0.0496289, NaN, NaN, NaN,0.0335714," ""- N/A -   """
29.77,1134.88,0.0497677, NaN, NaN, NaN,0.0299091," ""- N/A -   """
29.774,1134.99,0.04977606, NaN, NaN, NaN,0.0299091," ""- N/A -   """