Folder: DigitalTwins-Machine-Learning/2_Tensile_Data (part 12)

File: Hamel_ForceTest_Bolt4_Test10.csv
Time, Load (lb), Position (in), AxialStrain (in), TransverseStrain (in), Auxiliary (), Control Out (V), Stress (psi)
0.0, 14.2716, 0.0, NaN, NaN, NaN, -0.007935055, "- N/A -   "
0.01, 14.3896, 0.0, NaN, NaN, NaN, -6.103888E-4, "- N/A -   "
0.02, 14.2716, 0.0, NaN, NaN, NaN, 0.0115974, "- N/A -   "
0.03, 14.3896, 2.776752E-6, NaN, NaN, NaN, 0.0299091, "- N/A -   "
0.04, 14.3896, 8.330256E-6, NaN, NaN, NaN, 0.04699994, "- N/A -   "
0.05, 14.7434, 1.94373e-05, NaN, NaN, NaN, 0.06164927, "- N/A -   "
0.06, 14.8614, 3.60978e-05, NaN, NaN, NaN, 0.07385705, "- N/A -   "
0.07, 15.4511, 5.5535e-05, NaN, NaN, NaN, 0.084844, "- N/A -   "
0.08, 16.0409, 8.05258E-5, NaN, NaN, NaN, 0.09338949, "- N/A -   "
0.09, 16.6306, 0.00011107, NaN, NaN, NaN, 0.09949338, "- N/A -   "
0.1, 17.2203, 0.000141614, NaN, NaN, NaN, 0.103156, "- N/A -   "
0.11, 17.928, 0.000177712, NaN, NaN, NaN, 0.09461027, "- N/A -   "
0.12, 18.3998, 0.000211033, NaN, NaN, NaN, 0.08850638, "- N/A -   "
0.13, 19.1075, 0.000238801, NaN, NaN, NaN, 0.08362327, "- N/A -   "
0.14, 19.4613, 0.000263791, NaN, NaN, NaN, 0.0799609, "- N/A -   "
0.15, 20.05107, 0.000288782, NaN, NaN, NaN, 0.0750778, "- N/A -   "
0.16, 20.287, 3.109962E-4, NaN, NaN, NaN, 0.07385705, "- N/A -   "
0.17, 20.7588, 0.000330433, NaN, NaN, NaN, 0.07141549, "- N/A -   "
0.18, 21.1126, 0.000349871, NaN, NaN, NaN, 0.0701947, "- N/A -   "
0.19, 21.46644, 0.000372085, NaN, NaN, NaN, 0.06775316, "- N/A -   "
0.2, 21.93823, 0.000391522, NaN, NaN, NaN, 0.06653238, "- N/A -   "
0.21, 22.29207, 4.081825E-4, NaN, NaN, NaN, 0.06653238, "- N/A -   "
0.22, 22.6459, 4.276198E-4, NaN, NaN, NaN, 0.0653116, "- N/A -   "
0.23, 22.9998, 0.000447057, NaN, NaN, NaN, 0.0640908, "- N/A -   "
0.24, 23.3536, 4.664943E-4, NaN, NaN, NaN, 0.06287005, "- N/A -   "
0.25, 23.7074, 4.887083E-4, NaN, NaN, NaN, 0.06164927, "- N/A -   "
0.26, 24.0613, 5.053688E-4, NaN, NaN, NaN, 0.0604285, "- N/A -   "
0.27, 24.4151, 5.248061E-4, NaN, NaN, NaN, 0.0592077, "- N/A -   "
0.28, 24.8869, 5.470201E-4, NaN, NaN, NaN, 0.0579869, "- N/A -   "
0.29, 25.2408, 5.664574E-4, NaN, NaN, NaN, 0.0555454, "- N/A -   "
0.3, 25.4767, 5.858946E-4, NaN, NaN, NaN, 0.0543246, "- N/A -   "
0.31, 25.9484, 6.053319E-4, NaN, NaN, NaN, 0.0531038, "- N/A -   "
0.32, 26.4202, 0.000627546, NaN, NaN, NaN, 0.05188305, "- N/A -   "
0.33, 26.6561, 0.000646983, NaN, NaN, NaN, 0.05066227, "- N/A -   "
0.34, 27.01, 0.00066642, NaN, NaN, NaN, 0.0482207, "- N/A -   "
0.35, 27.4818, 6.858577E-4, NaN, NaN, NaN, 0.04699994, "- N/A -   "
0.36, 27.8356, 0.000705295, NaN, NaN, NaN, 0.04699994, "- N/A -   "
0.37, 28.1894, 7.219555E-4, NaN, NaN, NaN, 0.04577916, "- N/A -   "
0.38, 28.54329, 7.413927E-4, NaN, NaN, NaN, 0.0445584, "- N/A -   "
0.39, 28.89713, 7.6083E-4, NaN, NaN, NaN, 0.0433376, "- N/A -   "
0.4, 29.251, 0.000780267, NaN, NaN, NaN, 0.04211683, "- N/A -   "
0.41, 29.6048, 0.000802481, NaN, NaN, NaN, 0.04089605, "- N/A -   "
0.42, 29.9587, 8.191418E-4, NaN, NaN, NaN, 0.0396753, "- N/A -   "
0.43, 30.3125, 8.38579E-4, NaN, NaN, NaN, 0.0384545, "- N/A -   "
0.44, 30.6663, 8.552396E-4, NaN, NaN, NaN, 0.0384545, "- N/A -   "
0.49, 32.1997, 9.440956E-4, NaN, NaN, NaN, 0.0372337, "- N/A -   "
0.54, 33.8509, 0.00103017, NaN, NaN, NaN, 0.0347922, "- N/A -   "
0.59, 35.6201, 0.00112181, NaN, NaN, NaN, 0.03112983, "- N/A -   "
0.64, 37.0355, 0.00120789, NaN, NaN, NaN, 0.03112983, "- N/A -   "
0.69, 38.4509, 0.00128286, NaN, NaN, NaN, 0.0335714, "- N/A -   "
0.74, 39.7483, 0.00135505, NaN, NaN, NaN, 0.0384545, "- N/A -   "
0.79, 41.04572, 0.0014328, NaN, NaN, NaN, 0.04211683, "- N/A -   "
0.84, 42.3431, 0.001510553, NaN, NaN, NaN, 0.0433376, "- N/A -   "
0.89, 43.87646, 0.00159386, NaN, NaN, NaN, 0.0433376, "- N/A -   "
0.94, 45.17388, 0.001677158, NaN, NaN, NaN, 0.0433376, "- N/A -   "
0.99, 46.5893, 0.00176601, NaN, NaN, NaN, 0.04211683, "- N/A -   "
1.04, 48.00462, 0.00186042, NaN, NaN, NaN, 0.03601294, "- N/A -   "
1.09, 49.41999, 0.00195761, NaN, NaN, NaN, 0.0299091, "- N/A -   "
1.14, 50.7174, 0.00205202, NaN, NaN, NaN, 0.0262467, "- N/A -   "
1.19, 51.89689, 0.00212977, NaN, NaN, NaN, 0.0274675, "- N/A -   "
1.24, 53.0764, 0.00220752, NaN, NaN, NaN, 0.0299091, "- N/A -   "
1.29, 54.2558, 0.00228527, NaN, NaN, NaN, 0.0323506, "- N/A -   "
1.34, 55.43531, 0.002360239, NaN, NaN, NaN, 0.03601294, "- N/A -   "
1.39, 56.73273, 0.00244354, NaN, NaN, NaN, 0.03601294, "- N/A -   "
1.44, 58.0302, 0.00252407, NaN, NaN, NaN, 0.0372337, "- N/A -   "
1.49, 59.0917, 0.00259904, NaN, NaN, NaN, 0.04089605, "- N/A -   "
1.54, 60.27116, 0.00267679, NaN, NaN, NaN, 0.0433376, "- N/A -   "
1.59, 61.56858, 0.00275731, NaN, NaN, NaN, 0.0445584, "- N/A -   "
1.64, 63.1019, 0.002843394, NaN, NaN, NaN, 0.0433376, "- N/A -   "
1.69, 64.75317, 0.00294058, NaN, NaN, NaN, 0.0372337, "- N/A -   "
1.74, 66.16853, 0.003032213, NaN, NaN, NaN, 0.0335714, "- N/A -   "
1.79, 67.46596, 0.003121069, NaN, NaN, NaN, 0.0323506, "- N/A -   "
1.84, 68.8813, 0.003201595, NaN, NaN, NaN, 0.0335714, "- N/A -   "
1.89, 70.0608, 0.00327657, NaN, NaN, NaN, 0.03601294, "- N/A -   "
1.94, 71.3582, 0.003357093, NaN, NaN, NaN, 0.0384545, "- N/A -   "
1.99, 73.00948, 0.00344595, NaN, NaN, NaN, 0.03601294, "- N/A -   "
2.04, 74.5428, 0.00353481, NaN, NaN, NaN, 0.0335714, "- N/A -   "
2.09, 76.07612, 0.003615331, NaN, NaN, NaN, 0.0335714, "- N/A -   "
2.14, 77.25559, 0.0036903, NaN, NaN, NaN, 0.0372337, "- N/A -   "
2.19, 78.67096, 0.00376528, NaN, NaN, NaN, 0.04089605, "- N/A -   "
2.24, 80.44018, 0.00385135, NaN, NaN, NaN, 0.0396753, "- N/A -   "
2.29, 81.8555, 0.00393466, NaN, NaN, NaN, 0.0396753, "- N/A -   "
2.34, 83.50681, 0.004015183, NaN, NaN, NaN, 0.04211683, "- N/A -   "
2.39, 85.15807, 0.004104039, NaN, NaN, NaN, 0.0384545, "- N/A -   "
2.44, 86.80934, 0.00419012, NaN, NaN, NaN, 0.0372337, "- N/A -   "
2.49, 88.57855, 0.004276198, NaN, NaN, NaN, 0.03601294, "- N/A -   "
2.54, 90.34776, 0.00437061, NaN, NaN, NaN, 0.0323506, "- N/A -   "
2.59, 92.117, 0.004456687, NaN, NaN, NaN, 0.03112983, "- N/A -   "
2.64, 93.65029, 0.004534436, NaN, NaN, NaN, 0.0335714, "- N/A -   "
2.69, 95.30156, 0.00461774, NaN, NaN, NaN, 0.0335714, "- N/A -   "
2.74, 97.07077, 0.00470382, NaN, NaN, NaN, 0.03112983, "- N/A -   "
2.79, 98.83998, 0.00478434, NaN, NaN, NaN, 0.0323506, "- N/A -   "
2.84, 100.255, 0.004856539, NaN, NaN, NaN, 0.0372337, "- N/A -   "
2.89, 101.907, 0.004937065, NaN, NaN, NaN, 0.0384545, "- N/A -   "
2.94, 103.676, 0.005017591, NaN, NaN, NaN, 0.04089605, "- N/A -   "
2.99, 105.209, 0.005092563, NaN, NaN, NaN, 0.0433376, "- N/A -   "
3.04, 107.0963, 0.00517587, NaN, NaN, NaN, 0.0433376, "- N/A -   "
3.09, 108.866, 0.005261945, NaN, NaN, NaN, 0.04211683, "- N/A -   "
3.14, 111.107, 0.00535913, NaN, NaN, NaN, 0.0372337, "- N/A -   "
3.19, 112.994, 0.00544521, NaN, NaN, NaN, 0.0347922, "- N/A -   "
3.24, 114.881, 0.00553129, NaN, NaN, NaN, 0.0335714, "- N/A -   "
3.29, 116.414, 0.005609039, NaN, NaN, NaN, 0.03601294, "- N/A -   "
3.34, 118.419, 0.00569512, NaN, NaN, NaN, 0.0347922, "- N/A -   "
3.39, 120.66, 0.005792304, NaN, NaN, NaN, 0.0299091, "- N/A -   "
3.44, 122.429, 0.00587283, NaN, NaN, NaN, 0.0299091, "- N/A -   "
3.49, 124.081, 0.005947802, NaN, NaN, NaN, 0.0335714, "- N/A -   "
3.54, 125.496, 0.006014444, NaN, NaN, NaN, 0.04089605, "- N/A -   "
[...]
33.95, 1395.44, 0.0567179, NaN, NaN, NaN, 0.0323506, "- N/A -   "
34.17, 1405.58, 0.0570845, NaN, NaN, NaN, 0.0323506, "- N/A -   "
34.39, 1414.64, 0.0574149, NaN, NaN, NaN, 0.0482207, "- N/A -   "
34.61, 1425.97, 0.05781753, NaN, NaN, NaN, 0.0335714, "- N/A -   "
34.83, 1435.99, 0.0581785, NaN, NaN, NaN, 0.0347922, "- N/A -   "
35.05, 1445.65, 0.0585284, NaN, NaN, NaN, 0.0433376, "- N/A -   "
35.27, 1456.86, 0.0589282, NaN, NaN, NaN, 0.0274675, "- N/A -   "
35.49, 1466.63, 0.0592809, NaN, NaN, NaN, 0.0347922, "- N/A -   "
35.71, 1475.936, 0.05961686, NaN, NaN, NaN, 0.0482207, "- N/A -   "
35.93, 1487.62, 0.060025, NaN, NaN, NaN, 0.0299091, "- N/A -   "
36.15, 1497.52, 0.06038602, NaN, NaN, NaN, 0.0323506, "- N/A -   "
36.37, 1507.18, 0.0607359, NaN, NaN, NaN, 0.0396753, "- N/A -   "
36.59, 1517.555, 0.061108, NaN, NaN, NaN, 0.0372337, "- N/A -   "
36.81, 1528.17, 0.0614884, NaN, NaN, NaN, 0.03112983, "- N/A -   "
37.03, 1537.59, 0.0618299, NaN, NaN, NaN, 0.04211683, "- N/A -   "
37.25, 1548.08, 0.0622048, NaN, NaN, NaN, 0.0384545, "- N/A -   "
37.47, 1558.697, 0.0625852, NaN, NaN, NaN, 0.0323506, "- N/A -   "
37.69, 1567.88, 0.0629295, NaN, NaN, NaN, 0.0433376, "- N/A -   "
37.91, 1578.85, 0.0633155, NaN, NaN, NaN, 0.0335714, "- N/A -   "
38.13, 1589.46, 0.06369591, NaN, NaN, NaN, 0.0286883, "- N/A -   "
38.35, 1598.53, 0.06402634, NaN, NaN, NaN, 0.0433376, "- N/A -   "
38.57, 1608.9, 0.06439843, NaN, NaN, NaN, 0.04089605, "- N/A -   "
38.79, 1619.52, 0.0647844, NaN, NaN, NaN, 0.0323506, "- N/A -   "
39.01, 1629.41, 0.06513704, NaN, NaN, NaN, 0.0384545, "- N/A -   "
39.23, 1640.03, 0.0655175, NaN, NaN, NaN, 0.0323506, "- N/A -   "
39.45, 1649.92, 0.0658812, NaN, NaN, NaN, 0.0347922, "- N/A -   "
39.67, 1659.82, 0.06623664, NaN, NaN, NaN, 0.0384545, "- N/A -   "
39.89, 1669.84, 0.06660039, NaN, NaN, NaN, 0.04089605, "- N/A -   "
40.11, 1680.21, 0.06698081, NaN, NaN, NaN, 0.0347922, "- N/A -   "
40.33, 1690.47, 0.06735289, NaN, NaN, NaN, 0.0323506, "- N/A -   "
40.55, 1699.65, 0.0676917, NaN, NaN, NaN, 0.0445584, "- N/A -   "
40.77, 1710.5, 0.06808595, NaN, NaN, NaN, 0.0323506, "- N/A -   "
40.99, 1720.4, 0.06844693, NaN, NaN, NaN, 0.0347922, "- N/A -   "
41.21, 1729.47, 0.06878847, NaN, NaN, NaN, 0.04699994, "- N/A -   "
41.43, 1740.437, 0.06918555, NaN, NaN, NaN, 0.0323506, "- N/A -   "
41.65, 1749.86, 0.06954375, NaN, NaN, NaN, 0.03601294, "- N/A -   "
41.87, 1759.28, 0.0698964, NaN, NaN, NaN, 0.0433376, "- N/A -   "
42.09, 1770.37, 0.07029625, NaN, NaN, NaN, 0.0274675, "- N/A -   "
42.31, 1779.31, 0.0706406, NaN, NaN, NaN, 0.0384545, "- N/A -   "
42.53, 1788.61, 0.07098766, NaN, NaN, NaN, 0.04699994, "- N/A -   "
42.75, 1799.59, 0.0713875, NaN, NaN, NaN, 0.0323506, "- N/A -   "
42.97, 1809.48, 0.07175404, NaN, NaN, NaN, 0.03112983, "- N/A -   "
43.19, 1818.547, 0.07209836, NaN, NaN, NaN, 0.04211683, "- N/A -   "
43.41, 1829.04, 0.07248433, NaN, NaN, NaN, 0.0335714, "- N/A -   "
43.63, 1839.18, 0.07285641, NaN, NaN, NaN, 0.0299091, "- N/A -   "
43.85, 1848.12, 0.07319795, NaN, NaN, NaN, 0.04089605, "- N/A -   "
44.07, 1858.26, 0.07357, NaN, NaN, NaN, 0.0384545, "- N/A -   "
44.29, 1868.63, 0.07396156, NaN, NaN, NaN, 0.0274675, "- N/A -   "
44.51, 1877.219, 0.07429477, NaN, NaN, NaN, 0.0433376, "- N/A -   "
44.73, 1887.71, 0.07467797, NaN, NaN, NaN, 0.03601294, "- N/A -   "
44.95, 1898.21, 0.0750723, NaN, NaN, NaN, 0.0250259, "- N/A -   "
45.17, 1906.078, 0.07538326, NaN, NaN, NaN, 0.0482207, "- N/A -   "
45.39, 1916.57, 0.075772, NaN, NaN, NaN, 0.0396753, "- N/A -   "
45.561, 1924.92, 0.076083, NaN, NaN, NaN, 0.0274675, "- N/A -   "

File: Hamel_ForceTest_Bolt5_Test1.csv
Time, Load (lb), Position (in), AxialStrain (in), TransverseStrain (in), Auxiliary (), Control Out (V), Stress (psi)
0.0,1.06153,0.0, NaN, NaN, NaN,0.09094793," ""- N/A -   """
0.01,1.17947,1.94373e-05, NaN, NaN, NaN,0.100714," ""- N/A -   """
0.02,1.65126,4.720478e-05, NaN, NaN, NaN,0.1092596," ""- N/A -   """
0.13,6.251216,0.000344317, NaN, NaN, NaN,0.07263627," ""- N/A -   """
0.24,10.3794,0.0006053319, NaN, NaN, NaN,0.0384545," ""- N/A -   """
0.35,13.446,0.0007969278, NaN, NaN, NaN,0.0347922," ""- N/A -   """
0.46,16.3947,0.000969086, NaN, NaN, NaN,0.0396753," ""- N/A -   """
0.57,19.3434,0.001152352, NaN, NaN, NaN,0.0396753," ""- N/A -   """
0.68,22.29207,0.00132729, NaN, NaN, NaN,0.0433376," ""- N/A -   """
0.79,25.3587,0.00152166, NaN, NaN, NaN,0.0384545," ""- N/A -   """
0.9,28.6612,0.00172714, NaN, NaN, NaN,0.0286883," ""- N/A -   """
1.01,31.2561,0.00189374, NaN, NaN, NaN,0.03601294," ""- N/A -   """
1.12,34.3227,0.00208812, NaN, NaN, NaN,0.0323506," ""- N/A -   """
1.23,36.9176,0.00225472, NaN, NaN, NaN,0.0384545," ""- N/A -   """
1.34,39.6304,0.00243243, NaN, NaN, NaN,0.04089605," ""- N/A -   """
1.45,42.697,0.00262125, NaN, NaN, NaN,0.0384545," ""- N/A -   """
1.56,45.6457,0.00281285, NaN, NaN, NaN,0.03601294," ""- N/A -   """
1.67,48.59436,0.003001669, NaN, NaN, NaN,0.0335714," ""- N/A -   """
1.78,51.30715,0.00317383, NaN, NaN, NaN,0.0372337," ""- N/A -   """
1.89,54.3738,0.00336542, NaN, NaN, NaN,0.0335714," ""- N/A -   """
2,56.85068,0.00353481, NaN, NaN, NaN,0.0396753," ""- N/A -   """
2.11,59.68142,0.00371252, NaN, NaN, NaN,0.04211683," ""- N/A -   """
2.22,62.866,0.00390689, NaN, NaN, NaN,0.0372337," ""- N/A -   """
2.33,65.81469,0.00410126, NaN, NaN, NaN,0.0323506," ""- N/A -   """
2.44,68.7634,0.004287305, NaN, NaN, NaN,0.03112983," ""- N/A -   """
2.55,71.71206,0.004473347, NaN, NaN, NaN,0.03112983," ""- N/A -   """
2.66,73.9531,0.00462885, NaN, NaN, NaN,0.04211683," ""- N/A -   """
2.77,76.6659,0.00480378, NaN, NaN, NaN,0.04577916," ""- N/A -   """
2.88,79.96838,0.00500648, NaN, NaN, NaN,0.0372337," ""- N/A -   """
2.99,82.91707,0.005200856, NaN, NaN, NaN,0.0323506," ""- N/A -   """
3.1,85.86576,0.005395229, NaN, NaN, NaN,0.0274675," ""- N/A -   """
3.21,88.57855,0.00556739, NaN, NaN, NaN,0.0323506," ""- N/A -   """
3.32,90.9375,0.005733992, NaN, NaN, NaN,0.04089605," ""- N/A -   """
3.43,93.76824,0.005908928, NaN, NaN, NaN,0.0445584," ""- N/A -   """
3.54,96.599,0.00609497, NaN, NaN, NaN,0.0445584," ""- N/A -   """
3.65,100.019,0.00631156, NaN, NaN, NaN,0.0286883," ""- N/A -   """
3.76,102.496,0.006486492, NaN, NaN, NaN,0.0323506," ""- N/A -   """
3.87,105.327,0.0066642, NaN, NaN, NaN,0.0347922," ""- N/A -   """
3.98,107.804,0.00683914, NaN, NaN, NaN,0.0384545," ""- N/A -   """
4.09,110.399,0.00700574, NaN, NaN, NaN,0.04577916," ""- N/A -   """
4.2,113.583,0.00720567, NaN, NaN, NaN,0.0384545," ""- N/A -   """
4.31,116.5321,0.007405597, NaN, NaN, NaN,0.0323506," ""- N/A -   """
4.42,119.363,0.00758053, NaN, NaN, NaN,0.03601294," ""- N/A -   """
4.53,122.076,0.00777213, NaN, NaN, NaN,0.0323506," ""- N/A -   """
4.64,124.67,0.00794151, NaN, NaN, NaN,0.0372337," ""- N/A -   """
4.75,127.265,0.008119223, NaN, NaN, NaN,0.0396753," ""- N/A -   """
4.86,129.978,0.008305265, NaN, NaN, NaN,0.0384545," ""- N/A -   """
4.97,132.6909,0.00849131, NaN, NaN, NaN,0.0384545," ""- N/A -   """
5.08,135.64,0.00868568, NaN, NaN, NaN,0.0323506," ""- N/A -   """
5.19,138.352,0.008868946, NaN, NaN, NaN,0.0323506," ""- N/A -   """
5.3,141.183,0.009057764, NaN, NaN, NaN,0.03112983," ""- N/A -   """
5.41,143.424,0.009221594, NaN, NaN, NaN,0.0384545," ""- N/A -   """
5.52,145.783,0.009385422, NaN, NaN, NaN,0.04699994," ""- N/A -   """
5.63,148.968,0.009590901, NaN, NaN, NaN,0.0384545," ""- N/A -   """
5.74,151.68,0.009782498, NaN, NaN, NaN,0.0335714," ""- N/A -   """
5.85,154.629,0.009971316, NaN, NaN, NaN,0.03112983," ""- N/A -   """
5.96,157.106,0.0101518, NaN, NaN, NaN,0.0323506," ""- N/A -   """
6.07,159.465,0.0103156, NaN, NaN, NaN,0.04089605," ""- N/A -   """
6.18,161.942,0.010485, NaN, NaN, NaN,0.0482207," ""- N/A -   """
6.29,165.2444,0.0106905, NaN, NaN, NaN,0.0372337," ""- N/A -   """
6.4,168.075,0.0108821, NaN, NaN, NaN,0.0335714," ""- N/A -   """
6.51,170.906,0.0110765, NaN, NaN, NaN,0.0286883," ""- N/A -   """
6.62,173.619,0.0112542, NaN, NaN, NaN,0.03112983," ""- N/A -   """
6.73,175.86,0.0114152, NaN, NaN, NaN,0.04211683," ""- N/A -   """
6.84,178.69,0.0115957, NaN, NaN, NaN,0.0433376," ""- N/A -   """
6.95,181.639,0.0117845, NaN, NaN, NaN,0.04089605," ""- N/A -   """
7.06,185.06,0.0119928, NaN, NaN, NaN,0.0286883," ""- N/A -   """
7.17,187.654,0.01217328, NaN, NaN, NaN,0.0299091," ""- N/A -   """
7.28,190.367,0.01234544, NaN, NaN, NaN,0.03601294," ""- N/A -   """
7.39,192.962,0.0125204, NaN, NaN, NaN,0.0384545," ""- N/A -   """
7.5,195.7928,0.0126925, NaN, NaN, NaN,0.0433376," ""- N/A -   """
7.61,199.095,0.0128952, NaN, NaN, NaN,0.0347922," ""- N/A -   """
7.72,202.162,0.0130896, NaN, NaN, NaN,0.03112983," ""- N/A -   """
7.83,204.7568,0.0132645, NaN, NaN, NaN,0.0347922," ""- N/A -   """
7.94,207.823,0.0134534, NaN, NaN, NaN,0.0323506," ""- N/A -   """
8.05,210.536,0.0136255, NaN, NaN, NaN,0.0372337," ""- N/A -   """
8.16,213.249,0.0138032, NaN, NaN, NaN,0.0396753," ""- N/A -   """
8.27,216.434,0.0139893, NaN, NaN, NaN,0.0384545," ""- N/A -   """
8.38,219.3823,0.0141753, NaN, NaN, NaN,0.0372337," ""- N/A -   """
8.49,222.567,0.0143669, NaN, NaN, NaN,0.0335714," ""- N/A -   """
8.6,225.516,0.0145474, NaN, NaN, NaN,0.0347922," ""- N/A -   """
8.71,228.464,0.0147307, NaN, NaN, NaN,0.0347922," ""- N/A -   """
8.82,231.177,0.0149028, NaN, NaN, NaN,0.0396753," ""- N/A -   """
8.93,234.362,0.0150889, NaN, NaN, NaN,0.0396753," ""- N/A -   """
9.04,237.5462,0.0152777, NaN, NaN, NaN,0.03601294," ""- N/A -   """
9.15,240.613,0.015461, NaN, NaN, NaN,0.03601294," ""- N/A -   """
9.26,243.7961,0.0156498, NaN, NaN, NaN,0.0347922," ""- N/A -   """
9.37,246.624,0.0158275, NaN, NaN, NaN,0.0372337," ""- N/A -   """
9.48,249.57,0.0160052, NaN, NaN, NaN,0.0384545," ""- N/A -   """
9.59,252.397,0.01617458, NaN, NaN, NaN,0.0445584," ""- N/A -   """
9.7,256.05,0.01637173, NaN, NaN, NaN,0.0384545," ""- N/A -   """
9.81,259.231,0.0165661, NaN, NaN, NaN,0.0347922," ""- N/A -   """
9.92,262.766,0.0167605, NaN, NaN, NaN,0.0286883," ""- N/A -   """
10.03,265.5939,0.0169326, NaN, NaN, NaN,0.0335714," ""- N/A -   """
10.14,268.1861,0.0170937, NaN, NaN, NaN,0.0433376," ""- N/A -   """
10.25,271.485,0.0172742, NaN, NaN, NaN,0.0445584," ""- N/A -   """
10.36,275.02,0.0174685, NaN, NaN, NaN,0.0396753," ""- N/A -   """
10.47,278.908,0.0176768, NaN, NaN, NaN,0.0286883," ""- N/A -   """
10.58,281.972,0.01785729, NaN, NaN, NaN,0.0299091," ""- N/A -   """
10.69,285.035,0.01802945, NaN, NaN, NaN,0.0347922," ""- N/A -   """
10.8,288.0987,0.0182072, NaN, NaN, NaN,0.0384545," ""- N/A -   """
10.91,291.162,0.0183765, NaN, NaN, NaN,0.0433376," ""- N/A -   """
11.02,294.9326,0.0185737, NaN, NaN, NaN,0.0372337," ""- N/A -   """
11.13,298.703,0.01877362, NaN, NaN, NaN,0.0299091," ""- N/A -   """
11.24,301.6487,0.0189458, NaN, NaN, NaN,0.0347922," ""- N/A -   """
11.35,305.066,0.019129, NaN, NaN, NaN,0.03601294," ""- N/A -   """
11.46,308.247,0.0193068, NaN, NaN, NaN,0.0384545," ""- N/A -   """
[...]
23.39,737.7605,0.0391994, NaN, NaN, NaN,0.0335714," ""- N/A -   """
23.48,741.1906,0.0393521, NaN, NaN, NaN,0.0335714," ""- N/A -   """
23.57,744.976,0.0395076, NaN, NaN, NaN,0.0299091," ""- N/A -   """
23.66,748.2875,0.03965479, NaN, NaN, NaN,0.03112983," ""- N/A -   """
23.75,751.2445,0.0397853, NaN, NaN, NaN,0.04089605," ""- N/A -   """
23.84,754.556,0.0399241, NaN, NaN, NaN,0.0445584," ""- N/A -   """
23.93,758.1048,0.0400741, NaN, NaN, NaN,0.0445584," ""- N/A -   """
24.02,762.008,0.04023791, NaN, NaN, NaN,0.0384545," ""- N/A -   """
24.11,766.384,0.0404128, NaN, NaN, NaN,0.0274675," ""- N/A -   """
24.2,769.933,0.0405656, NaN, NaN, NaN,0.0262467," ""- N/A -   """
24.29,773.126,0.0407016, NaN, NaN, NaN,0.0323506," ""- N/A -   """
24.38,776.5566,0.040846, NaN, NaN, NaN,0.0347922," ""- N/A -   """
24.47,779.6319,0.0409849, NaN, NaN, NaN,0.0396753," ""- N/A -   """
24.56,783.062,0.04112647, NaN, NaN, NaN,0.0445584," ""- N/A -   """
24.65,786.729,0.0412792, NaN, NaN, NaN,0.04211683," ""- N/A -   """
24.74,790.9868,0.0414541, NaN, NaN, NaN,0.03112983," ""- N/A -   """
24.83,794.417,0.0415985, NaN, NaN, NaN,0.0335714," ""- N/A -   """
24.92,797.7289,0.04174569, NaN, NaN, NaN,0.03601294," ""- N/A -   """
25.01,801.5138,0.04190396, NaN, NaN, NaN,0.03112983," ""- N/A -   """
25.1,804.944,0.0420456, NaN, NaN, NaN,0.03601294," ""- N/A -   """
25.19,808.0193,0.0421844, NaN, NaN, NaN,0.04089605," ""- N/A -   """
25.28,811.686,0.04233158, NaN, NaN, NaN,0.04089605," ""- N/A -   """
25.37,815.5893,0.04249263, NaN, NaN, NaN,0.03601294," ""- N/A -   """
25.46,819.1377,0.0426426, NaN, NaN, NaN,0.03601294," ""- N/A -   """
25.55,822.9227,0.04280085, NaN, NaN, NaN,0.0323506," ""- N/A -   """
25.64,826.5894,0.0429536, NaN, NaN, NaN,0.03112983," ""- N/A -   """
25.73,830.1378,0.0431063, NaN, NaN, NaN,0.0299091," ""- N/A -   """
25.82,833.4497,0.0432424, NaN, NaN, NaN,0.03601294," ""- N/A -   """
25.91,836.643,0.04338397, NaN, NaN, NaN,0.04089605," ""- N/A -   """
26,839.955,0.04352281, NaN, NaN, NaN,0.0445584," ""- N/A -   """
26.09,843.9767,0.04368386, NaN, NaN, NaN,0.0396753," ""- N/A -   """
26.18,848.116,0.0438505, NaN, NaN, NaN,0.0347922," ""- N/A -   """
26.27,851.5467,0.0439949, NaN, NaN, NaN,0.03601294," ""- N/A -   """
26.36,855.5682,0.04416146, NaN, NaN, NaN,0.0299091," ""- N/A -   """
26.45,858.7618,0.0443031, NaN, NaN, NaN,0.0335714," ""- N/A -   """
26.54,861.8371,0.0444364, NaN, NaN, NaN,0.0396753," ""- N/A -   """
26.63,865.149,0.04456964, NaN, NaN, NaN,0.04699994," ""- N/A -   """
26.72,869.1705,0.0447335, NaN, NaN, NaN,0.04211683," ""- N/A -   """
26.81,873.0738,0.04489175, NaN, NaN, NaN,0.0372337," ""- N/A -   """
26.9,877.214,0.0450556, NaN, NaN, NaN,0.03112983," ""- N/A -   """
26.99,880.8803,0.0452111, NaN, NaN, NaN,0.0286883," ""- N/A -   """
27.08,884.3104,0.0453555, NaN, NaN, NaN,0.03112983," ""- N/A -   """
27.17,887.1492,0.04548042, NaN, NaN, NaN,0.04211683," ""- N/A -   """
27.26,890.698,0.045622, NaN, NaN, NaN,0.04577916," ""- N/A -   """
27.35,894.4826,0.04577753, NaN, NaN, NaN,0.0433376," ""- N/A -   """
27.44,898.268,0.045933, NaN, NaN, NaN,0.04211683," ""- N/A -   """
27.53,902.644,0.046108, NaN, NaN, NaN,0.03112983," ""- N/A -   """
27.62,906.192,0.04625513, NaN, NaN, NaN,0.03112983," ""- N/A -   """
27.71,909.623,0.0463967, NaN, NaN, NaN,0.03601294," ""- N/A -   """
27.8,913.0527,0.04653836, NaN, NaN, NaN,0.0396753," ""- N/A -   """
27.89,916.601,0.0466828, NaN, NaN, NaN,0.04089605," ""- N/A -   """
27.98,920.2678,0.04683547, NaN, NaN, NaN,0.04089605," ""- N/A -   """
28.038,922.87,0.0469382, NaN, NaN, NaN,0.0372337," ""- N/A -   """