Folder: DigitalTwins-Machine-Learning/2_Tensile_Data (part 11)

File: Hamel_ForceTest_Bolt4_Test8.csv
Time, Load (lb), Position (in), AxialStrain (in), TransverseStrain (in), Auxiliary (), Control Out (V), Stress (psi)
0.0, 7.666586, 0.0, NaN, NaN, NaN, -0.007935055, "- N/A -   "
0.01, 7.666586, 0.0, NaN, NaN, NaN, -6.103888E-4, "- N/A -   "
0.02, 7.666586, 0.0, NaN, NaN, NaN, 0.006714277, "- N/A -   "
0.03, 7.666586, 0.0, NaN, NaN, NaN, 0.0140389, "- N/A -   "
0.04, 7.666586, 2.776752E-6, NaN, NaN, NaN, 0.0213636, "- N/A -   "
0.05, 7.90248, 5.553504E-6, NaN, NaN, NaN, 0.0396753, "- N/A -   "
0.06, 7.90248, 1.66605e-05, NaN, NaN, NaN, 0.0543246, "- N/A -   "
0.07, 8.138375, 3.60978e-05, NaN, NaN, NaN, 0.0653116, "- N/A -   "
0.08, 8.492218, 5.5535e-05, NaN, NaN, NaN, 0.0762986, "- N/A -   "
0.09, 8.728113, 8.33026e-05, NaN, NaN, NaN, 0.084844, "- N/A -   "
0.1, 9.081955, 0.00011107, NaN, NaN, NaN, 0.08362327, "- N/A -   "
0.11, 9.553744, 0.000141614, NaN, NaN, NaN, 0.07874016, "- N/A -   "
0.12, 9.78964, 0.000166605, NaN, NaN, NaN, 0.0750778, "- N/A -   "
0.13, 10.1435, 0.000191596, NaN, NaN, NaN, 0.0701947, "- N/A -   "
0.14, 10.26143, 2.138099E-4, NaN, NaN, NaN, 0.06775316, "- N/A -   "
0.15, 10.4973, 0.000233247, NaN, NaN, NaN, 0.06653238, "- N/A -   "
0.16, 10.73322, 2.526844E-4, NaN, NaN, NaN, 0.0653116, "- N/A -   "
0.17, 10.8512, 0.000269345, NaN, NaN, NaN, 0.0653116, "- N/A -   "
0.18, 11.205, 0.000288782, NaN, NaN, NaN, 0.0640908, "- N/A -   "
0.19, 11.4409, 0.000308219, NaN, NaN, NaN, 0.06287005, "- N/A -   "
0.2, 11.5589, 0.000327657, NaN, NaN, NaN, 0.06164927, "- N/A -   "
0.21, 11.7947, 0.000344317, NaN, NaN, NaN, 0.06164927, "- N/A -   "
0.22, 11.9127, 0.000360978, NaN, NaN, NaN, 0.06164927, "- N/A -   "
0.23, 12.14859, 3.80415E-4, NaN, NaN, NaN, 0.0604285, "- N/A -   "
0.24, 12.2665, 0.000399852, NaN, NaN, NaN, 0.0592077, "- N/A -   "
0.25, 12.5024, 0.000416513, NaN, NaN, NaN, 0.0592077, "- N/A -   "
0.26, 12.6204, 0.00043595, NaN, NaN, NaN, 0.0579869, "- N/A -   "
0.27, 12.9742, 4.553873E-4, NaN, NaN, NaN, 0.05676616, "- N/A -   "
0.28, 13.09217, 0.000474825, NaN, NaN, NaN, 0.0555454, "- N/A -   "
0.29, 13.3281, 4.942618E-4, NaN, NaN, NaN, 0.0543246, "- N/A -   "
0.3, 13.446, 5.136991E-4, NaN, NaN, NaN, 0.0531038, "- N/A -   "
0.31, 13.7999, 0.000533136, NaN, NaN, NaN, 0.05188305, "- N/A -   "
0.32, 13.9178, 5.553504E-4, NaN, NaN, NaN, 0.0494415, "- N/A -   "
0.33, 14.1537, 5.747876E-4, NaN, NaN, NaN, 0.0482207, "- N/A -   "
0.34, 14.3896, 5.942249E-4, NaN, NaN, NaN, 0.04699994, "- N/A -   "
0.35, 14.5075, 6.136621E-4, NaN, NaN, NaN, 0.04577916, "- N/A -   "
0.36, 14.7434, 6.330994E-4, NaN, NaN, NaN, 0.0445584, "- N/A -   "
0.37, 14.9793, 6.525367E-4, NaN, NaN, NaN, 0.0433376, "- N/A -   "
0.38, 15.0973, 6.747507E-4, NaN, NaN, NaN, 0.04089605, "- N/A -   "
0.39, 15.3332, 0.000694188, NaN, NaN, NaN, 0.0396753, "- N/A -   "
0.4, 15.5691, 7.136252E-4, NaN, NaN, NaN, 0.0384545, "- N/A -   "
0.41, 15.805, 0.000733062, NaN, NaN, NaN, 0.0372337, "- N/A -   "
0.42, 15.9229, 7.49723E-4, NaN, NaN, NaN, 0.0372337, "- N/A -   "
0.43, 16.0409, 7.663835E-4, NaN, NaN, NaN, 0.0372337, "- N/A -   "
0.48, 16.9844, 8.524628E-4, NaN, NaN, NaN, 0.03601294, "- N/A -   "
0.53, 18.046, 0.000949649, NaN, NaN, NaN, 0.0299091, "- N/A -   "
0.58, 18.8716, 0.00103573, NaN, NaN, NaN, 0.0299091, "- N/A -   "
0.63, 19.6972, 0.0011107, NaN, NaN, NaN, 0.0323506, "- N/A -   "
0.68, 20.4049, 0.00118845, NaN, NaN, NaN, 0.03601294, "- N/A -   "
0.73, 21.2305, 0.00126342, NaN, NaN, NaN, 0.0384545, "- N/A -   "
0.78, 21.93823, 0.00133839, NaN, NaN, NaN, 0.04211683, "- N/A -   "
0.83, 22.88181, 0.00141614, NaN, NaN, NaN, 0.0445584, "- N/A -   "
0.88, 23.82539, 0.001499446, NaN, NaN, NaN, 0.0445584, "- N/A -   "
0.93, 24.65102, 0.00157997, NaN, NaN, NaN, 0.04577916, "- N/A -   "
0.98, 25.8305, 0.0016716, NaN, NaN, NaN, 0.04211683, "- N/A -   "
1.03, 26.892, 0.00176601, NaN, NaN, NaN, 0.0372337, "- N/A -   "
1.08, 28.0715, 0.00186042, NaN, NaN, NaN, 0.0323506, "- N/A -   "
1.13, 29.251, 0.00195483, NaN, NaN, NaN, 0.0274675, "- N/A -   "
1.18, 30.3125, 0.002038136, NaN, NaN, NaN, 0.0274675, "- N/A -   "
1.23, 31.2561, 0.00211588, NaN, NaN, NaN, 0.0299091, "- N/A -   "
1.28, 32.3176, 0.002193634, NaN, NaN, NaN, 0.0323506, "- N/A -   "
1.33, 33.2612, 0.002271383, NaN, NaN, NaN, 0.0347922, "- N/A -   "
1.38, 34.3227, 0.00235469, NaN, NaN, NaN, 0.0347922, "- N/A -   "
1.43, 35.3842, 0.00243521, NaN, NaN, NaN, 0.03601294, "- N/A -   "
1.48, 36.32782, 0.00251018, NaN, NaN, NaN, 0.0396753, "- N/A -   "
1.53, 37.2714, 0.00258516, NaN, NaN, NaN, 0.0433376, "- N/A -   "
1.58, 38.3329, 0.00266568, NaN, NaN, NaN, 0.0445584, "- N/A -   "
1.63, 39.2765, 0.00274898, NaN, NaN, NaN, 0.04577916, "- N/A -   "
1.68, 40.69188, 0.00284062, NaN, NaN, NaN, 0.04089605, "- N/A -   "
1.73, 41.8714, 0.00293503, NaN, NaN, NaN, 0.0372337, "- N/A -   "
1.78, 43.0508, 0.00302666, NaN, NaN, NaN, 0.0323506, "- N/A -   "
1.83, 43.9944, 0.00310719, NaN, NaN, NaN, 0.0335714, "- N/A -   "
1.88, 45.05593, 0.00318493, NaN, NaN, NaN, 0.03601294, "- N/A -   "
1.93, 45.9995, 0.00327101, NaN, NaN, NaN, 0.0347922, "- N/A -   "
1.98, 47.179, 0.00335987, NaN, NaN, NaN, 0.0323506, "- N/A -   "
2.03, 48.12257, 0.0034404, NaN, NaN, NaN, 0.0335714, "- N/A -   "
2.08, 49.0661, 0.00351814, NaN, NaN, NaN, 0.03601294, "- N/A -   "
2.13, 50.0097, 0.00359589, NaN, NaN, NaN, 0.0384545, "- N/A -   "
2.18, 50.9533, 0.00367364, NaN, NaN, NaN, 0.04089605, "- N/A -   "
2.23, 51.89689, 0.00375695, NaN, NaN, NaN, 0.04089605, "- N/A -   "
2.28, 52.9584, 0.00384302, NaN, NaN, NaN, 0.0396753, "- N/A -   "
2.33, 54.0199, 0.00393188, NaN, NaN, NaN, 0.0372337, "- N/A -   "
2.38, 55.0815, 0.00401796, NaN, NaN, NaN, 0.03601294, "- N/A -   "
2.43, 56.143, 0.004104039, NaN, NaN, NaN, 0.0347922, "- N/A -   "
2.48, 56.9686, 0.00418179, NaN, NaN, NaN, 0.0372337, "- N/A -   "
2.53, 58.1481, 0.004265091, NaN, NaN, NaN, 0.0372337, "- N/A -   "
2.58, 59.3276, 0.00435672, NaN, NaN, NaN, 0.0335714, "- N/A -   "
2.63, 60.3891, 0.004442803, NaN, NaN, NaN, 0.0323506, "- N/A -   "
2.68, 61.56858, 0.00452611, NaN, NaN, NaN, 0.0323506, "- N/A -   "
2.73, 62.6301, 0.004609408, NaN, NaN, NaN, 0.0323506, "- N/A -   "
2.78, 63.80958, 0.00469549, NaN, NaN, NaN, 0.03112983, "- N/A -   "
2.83, 64.87111, 0.00477324, NaN, NaN, NaN, 0.0335714, "- N/A -   "
2.88, 65.81469, 0.004845432, NaN, NaN, NaN, 0.0384545, "- N/A -   "
2.93, 66.87622, 0.0049204, NaN, NaN, NaN, 0.04211683, "- N/A -   "
2.98, 68.05569, 0.00500093, NaN, NaN, NaN, 0.0433376, "- N/A -   "
3.03, 69.23517, 0.00508423, NaN, NaN, NaN, 0.0433376, "- N/A -   "
3.08, 70.5326, 0.00517031, NaN, NaN, NaN, 0.04211683, "- N/A -   "
3.13, 72.06591, 0.00526472, NaN, NaN, NaN, 0.0372337, "- N/A -   "
3.18, 73.36333, 0.00535913, NaN, NaN, NaN, 0.0323506, "- N/A -   "
3.23, 74.66075, 0.00544243, NaN, NaN, NaN, 0.0323506, "- N/A -   "
3.28, 75.8402, 0.00552296, NaN, NaN, NaN, 0.0335714, "- N/A -   "
3.33, 77.37354, 0.00560904, NaN, NaN, NaN, 0.0323506, "- N/A -   "
3.38, 78.67096, 0.005697895, NaN, NaN, NaN, 0.0299091, "- N/A -   "
3.43, 79.85043, 0.00577842, NaN, NaN, NaN, 0.03112983, "- N/A -   "
3.48, 81.14786, 0.00585617, NaN, NaN, NaN, 0.0335714, "- N/A -   "
3.53, 82.32734, 0.005931142, NaN, NaN, NaN, 0.0372337, "- N/A -   "
3.58, 83.27091, 0.006003338, NaN, NaN, NaN, 0.04211683, "- N/A -   "
3.63, 84.56834, 0.00607831, NaN, NaN, NaN, 0.04699994, "- N/A -   "
[...]
32.95, 1247.09, 0.05496025, NaN, NaN, NaN, 0.0396753, "- N/A -   "
33.12, 1254.49, 0.0552407, NaN, NaN, NaN, 0.04089605, "- N/A -   "
33.29, 1262.36, 0.0555378, NaN, NaN, NaN, 0.0347922, "- N/A -   "
33.46, 1269.87, 0.055821, NaN, NaN, NaN, 0.0347922, "- N/A -   "
33.63, 1277.02, 0.05609039, NaN, NaN, NaN, 0.04089605, "- N/A -   "
33.8, 1284.78, 0.05637917, NaN, NaN, NaN, 0.0396753, "- N/A -   "
33.97, 1292.77, 0.05667906, NaN, NaN, NaN, 0.03112983, "- N/A -   "
34.14, 1300.4, 0.0569651, NaN, NaN, NaN, 0.0299091, "- N/A -   "
34.31, 1306.72, 0.0572094, NaN, NaN, NaN, 0.04699994, "- N/A -   "
34.48, 1314.71, 0.0575121, NaN, NaN, NaN, 0.0384545, "- N/A -   "
34.65, 1322.58, 0.0578064, NaN, NaN, NaN, 0.0335714, "- N/A -   "
34.82, 1330.21, 0.0580924, NaN, NaN, NaN, 0.0323506, "- N/A -   "
34.99, 1337.01, 0.0583562, NaN, NaN, NaN, 0.04089605, "- N/A -   "
35.16, 1345, 0.0586506, NaN, NaN, NaN, 0.03601294, "- N/A -   "
35.33, 1353.11, 0.058956, NaN, NaN, NaN, 0.0274675, "- N/A -   "
35.5, 1360.14, 0.0592226, NaN, NaN, NaN, 0.0347922, "- N/A -   "
35.67, 1367.06, 0.0594836, NaN, NaN, NaN, 0.0445584, "- N/A -   "
35.84, 1375.29, 0.05978902, NaN, NaN, NaN, 0.0347922, "- N/A -   "
36.01, 1382.56, 0.0600639, NaN, NaN, NaN, 0.0396753, "- N/A -   "
36.18, 1390.31, 0.0603555, NaN, NaN, NaN, 0.0347922, "- N/A -   "
36.35, 1397.349, 0.0606248, NaN, NaN, NaN, 0.04089605, "- N/A -   "
36.52, 1405.22, 0.0609136, NaN, NaN, NaN, 0.0384545, "- N/A -   "
36.69, 1413.09, 0.0612107, NaN, NaN, NaN, 0.0323506, "- N/A -   "
36.86, 1420.484, 0.06149117, NaN, NaN, NaN, 0.0335714, "- N/A -   "
37.03, 1427.4, 0.06175218, NaN, NaN, NaN, 0.0433376, "- N/A -   "
37.2, 1435.15, 0.0620437, NaN, NaN, NaN, 0.0396753, "- N/A -   "
37.37, 1442.9, 0.0623381, NaN, NaN, NaN, 0.0347922, "- N/A -   "
37.54, 1450.774, 0.06262964, NaN, NaN, NaN, 0.03112983, "- N/A -   "
37.71, 1457.452, 0.0628851, NaN, NaN, NaN, 0.0433376, "- N/A -   "
37.88, 1465.44, 0.06318499, NaN, NaN, NaN, 0.03601294, "- N/A -   "
38.05, 1473.31, 0.0634821, NaN, NaN, NaN, 0.0299091, "- N/A -   "
38.22, 1480.71, 0.063757, NaN, NaN, NaN, 0.0335714, "- N/A -   "
38.39, 1487.38, 0.06401524, NaN, NaN, NaN, 0.0445584, "- N/A -   "
38.56, 1495.02, 0.0643068, NaN, NaN, NaN, 0.04089605, "- N/A -   "
38.73, 1503.36, 0.06461501, NaN, NaN, NaN, 0.0299091, "- N/A -   "
38.9, 1510.4, 0.06488436, NaN, NaN, NaN, 0.03601294, "- N/A -   "
39.07, 1517.44, 0.06514815, NaN, NaN, NaN, 0.0445584, "- N/A -   "
39.24, 1525.43, 0.06545082, NaN, NaN, NaN, 0.03601294, "- N/A -   "
39.41, 1533.42, 0.06574793, NaN, NaN, NaN, 0.0299091, "- N/A -   "
39.58, 1540.69, 0.06602283, NaN, NaN, NaN, 0.0335714, "- N/A -   "
39.75, 1547.61, 0.0662866, NaN, NaN, NaN, 0.04211683, "- N/A -   "
39.92, 1555.48, 0.06658096, NaN, NaN, NaN, 0.0384545, "- N/A -   "
40.09, 1563.23, 0.0668753, NaN, NaN, NaN, 0.0335714, "- N/A -   "
40.26, 1570.503, 0.06715297, NaN, NaN, NaN, 0.03601294, "- N/A -   "
40.43, 1577.54, 0.0674279, NaN, NaN, NaN, 0.0396753, "- N/A -   "
40.6, 1585.05, 0.06770554, NaN, NaN, NaN, 0.04211683, "- N/A -   "
40.77, 1593.04, 0.06801376, NaN, NaN, NaN, 0.03112983, "- N/A -   "
40.94, 1600.55, 0.06829699, NaN, NaN, NaN, 0.03112983, "- N/A -   "
41.11, 1606.994, 0.0685469, NaN, NaN, NaN, 0.04577916, "- N/A -   "
41.28, 1614.75, 0.068844, NaN, NaN, NaN, 0.0396753, "- N/A -   "
41.45, 1622.5, 0.0691439, NaN, NaN, NaN, 0.0323506, "- N/A -   "
41.62, 1630.01, 0.0694327, NaN, NaN, NaN, 0.0299091, "- N/A -   "
41.79, 1636.45, 0.06968259, NaN, NaN, NaN, 0.0445584, "- N/A -   "
41.96, 1644.08, 0.0699769, NaN, NaN, NaN, 0.0396753, "- N/A -   "
41.972, 1644.68, 0.0699991, NaN, NaN, NaN, 0.0396753, "- N/A -   "

File: Hamel_ForceTest_Bolt4_Test9.csv
Time, Load (lb), Position (in), AxialStrain (in), TransverseStrain (in), Auxiliary (), Control Out (V), Stress (psi)
0.0, 11.0871, 0.0, NaN, NaN, NaN, -0.007935055, "- N/A -   "
0.01, 11.0871, 0.0, NaN, NaN, NaN, -6.103888E-4, "- N/A -   "
0.02, 11.205, 0.0, NaN, NaN, NaN, 0.0115974, "- N/A -   "
0.03, 11.205, 0.0, NaN, NaN, NaN, 0.03112983, "- N/A -   "
0.04, 11.323, 8.330256E-6, NaN, NaN, NaN, 0.0482207, "- N/A -   "
0.05, 11.4409, 2.2214e-05, NaN, NaN, NaN, 0.06164927, "- N/A -   "
0.06, 11.6768, 3.60978e-05, NaN, NaN, NaN, 0.07385705, "- N/A -   "
0.07, 12.14859, 5.83118e-05, NaN, NaN, NaN, 0.084844, "- N/A -   "
0.08, 12.5024, 8.33026e-05, NaN, NaN, NaN, 0.09216871, "- N/A -   "
0.09, 12.8563, 0.000113847, NaN, NaN, NaN, 0.09949338, "- N/A -   "
0.1, 13.3281, 0.000144391, NaN, NaN, NaN, 0.103156, "- N/A -   "
0.11, 13.9178, 0.000174935, NaN, NaN, NaN, 0.095831, "- N/A -   "
0.12, 14.3896, 0.000208256, NaN, NaN, NaN, 0.0897272, "- N/A -   "
0.13, 14.9793, 2.360239E-4, NaN, NaN, NaN, 0.08362327, "- N/A -   "
0.14, 15.3332, 0.000263791, NaN, NaN, NaN, 0.07874016, "- N/A -   "
0.15, 15.687, 0.000288782, NaN, NaN, NaN, 0.0762986, "- N/A -   "
0.16, 16.0409, 3.109962E-4, NaN, NaN, NaN, 0.07385705, "- N/A -   "
0.17, 16.3947, 0.000330433, NaN, NaN, NaN, 0.07141549, "- N/A -   "
0.18, 16.6306, 0.000349871, NaN, NaN, NaN, 0.0701947, "- N/A -   "
0.19, 16.9844, 0.000366531, NaN, NaN, NaN, 0.0701947, "- N/A -   "
0.2, 17.2203, 3.859685E-4, NaN, NaN, NaN, 0.0689739, "- N/A -   "
0.21, 17.5742, 0.000405406, NaN, NaN, NaN, 0.0689739, "- N/A -   "
0.22, 17.8101, 0.000422066, NaN, NaN, NaN, 0.06775316, "- N/A -   "
0.23, 18.046, 0.000441504, NaN, NaN, NaN, 0.06653238, "- N/A -   "
0.24, 18.2819, 4.609408E-4, NaN, NaN, NaN, 0.0653116, "- N/A -   "
0.25, 18.6357, 4.776013E-4, NaN, NaN, NaN, 0.0653116, "- N/A -   "
0.26, 18.8716, 4.970386E-4, NaN, NaN, NaN, 0.0640908, "- N/A -   "
0.27, 19.1075, 5.164758E-4, NaN, NaN, NaN, 0.0640908, "- N/A -   "
0.28, 19.4613, 5.359131E-4, NaN, NaN, NaN, 0.06287005, "- N/A -   "
0.29, 19.6972, 5.553504E-4, NaN, NaN, NaN, 0.0604285, "- N/A -   "
0.3, 20.05107, 0.000577564, NaN, NaN, NaN, 0.0592077, "- N/A -   "
0.31, 20.4049, 5.997784E-4, NaN, NaN, NaN, 0.05676616, "- N/A -   "
0.32, 20.7588, 0.000619216, NaN, NaN, NaN, 0.0543246, "- N/A -   "
0.33, 20.99465, 6.414297E-4, NaN, NaN, NaN, 0.05188305, "- N/A -   "
0.34, 21.3485, 6.636437E-4, NaN, NaN, NaN, 0.0494415, "- N/A -   "
0.35, 21.7023, 6.858577E-4, NaN, NaN, NaN, 0.0482207, "- N/A -   "
0.36, 21.93823, 7.025182E-4, NaN, NaN, NaN, 0.04699994, "- N/A -   "
0.37, 22.1741, 7.219555E-4, NaN, NaN, NaN, 0.04577916, "- N/A -   "
0.38, 22.41, 7.413927E-4, NaN, NaN, NaN, 0.0445584, "- N/A -   "
0.39, 22.6459, 7.6083E-4, NaN, NaN, NaN, 0.0433376, "- N/A -   "
0.4, 22.9998, 0.000780267, NaN, NaN, NaN, 0.04211683, "- N/A -   "
0.41, 23.2357, 7.997045E-4, NaN, NaN, NaN, 0.04089605, "- N/A -   "
0.42, 23.4715, 8.191418E-4, NaN, NaN, NaN, 0.0396753, "- N/A -   "
0.43, 23.7074, 8.38579E-4, NaN, NaN, NaN, 0.0384545, "- N/A -   "
0.44, 23.9433, 8.552396E-4, NaN, NaN, NaN, 0.0384545, "- N/A -   "
0.45, 24.0613, 0.0008719, NaN, NaN, NaN, 0.0384545, "- N/A -   "
0.46, 24.4151, 8.885606E-4, NaN, NaN, NaN, 0.0384545, "- N/A -   "
0.47, 24.65102, 9.052211E-4, NaN, NaN, NaN, 0.0384545, "- N/A -   "
0.48, 24.769, 9.246584E-4, NaN, NaN, NaN, 0.0372337, "- N/A -   "
0.49, 25.1228, 9.440956E-4, NaN, NaN, NaN, 0.03601294, "- N/A -   "
0.5, 25.3587, 9.663096E-4, NaN, NaN, NaN, 0.0347922, "- N/A -   "
0.51, 25.7125, 9.857469E-4, NaN, NaN, NaN, 0.0323506, "- N/A -   "
0.55, 26.5382, 0.00105794, NaN, NaN, NaN, 0.0299091, "- N/A -   "
0.59, 27.4818, 0.00112181, NaN, NaN, NaN, 0.03112983, "- N/A -   "
0.63, 28.3074, 0.0011829, NaN, NaN, NaN, 0.0335714, "- N/A -   "
0.67, 29.133, 0.00124676, NaN, NaN, NaN, 0.0347922, "- N/A -   "
0.71, 29.9587, 0.0013134, NaN, NaN, NaN, 0.0347922, "- N/A -   "
0.75, 30.6663, 0.00137172, NaN, NaN, NaN, 0.0396753, "- N/A -   "
0.79, 31.492, 0.00143003, NaN, NaN, NaN, 0.0433376, "- N/A -   "
0.83, 32.4356, 0.00149389, NaN, NaN, NaN, 0.0433376, "- N/A -   "
0.87, 33.1432, 0.00156053, NaN, NaN, NaN, 0.0433376, "- N/A -   "
0.91, 33.9689, 0.00162718, NaN, NaN, NaN, 0.0445584, "- N/A -   "
0.95, 34.7945, 0.00169104, NaN, NaN, NaN, 0.04577916, "- N/A -   "
0.99, 35.85603, 0.00176324, NaN, NaN, NaN, 0.0433376, "- N/A -   "
1.03, 36.79961, 0.001835433, NaN, NaN, NaN, 0.0396753, "- N/A -   "
1.07, 37.74319, 0.00191874, NaN, NaN, NaN, 0.0323506, "- N/A -   "
1.11, 38.68677, 0.00199648, NaN, NaN, NaN, 0.0274675, "- N/A -   "
1.15, 39.3945, 0.0020659, NaN, NaN, NaN, 0.0274675, "- N/A -   "
1.19, 40.22009, 0.00212977, NaN, NaN, NaN, 0.0274675, "- N/A -   "
1.23, 40.9278, 0.00219641, NaN, NaN, NaN, 0.0274675, "- N/A -   "
1.27, 41.6355, 0.0022575, NaN, NaN, NaN, 0.0299091, "- N/A -   "
1.31, 42.3431, 0.00232136, NaN, NaN, NaN, 0.0323506, "- N/A -   "
1.35, 43.1688, 0.00237968, NaN, NaN, NaN, 0.0347922, "- N/A -   "
1.39, 43.9944, 0.00244632, NaN, NaN, NaN, 0.0347922, "- N/A -   "
1.43, 44.70209, 0.00251296, NaN, NaN, NaN, 0.03601294, "- N/A -   "
1.47, 45.5277, 0.00257405, NaN, NaN, NaN, 0.0372337, "- N/A -   "
1.51, 46.3534, 0.00263236, NaN, NaN, NaN, 0.04089605, "- N/A -   "
1.55, 47.061, 0.00269345, NaN, NaN, NaN, 0.0445584, "- N/A -   "
1.59, 47.8867, 0.002751761, NaN, NaN, NaN, 0.04699994, "- N/A -   "
1.63, 48.7123, 0.00281563, NaN, NaN, NaN, 0.0482207, "- N/A -   "
1.67, 49.7738, 0.00289338, NaN, NaN, NaN, 0.0433376, "- N/A -   "
1.71, 51.0713, 0.0029739, NaN, NaN, NaN, 0.0372337, "- N/A -   "
1.75, 52.01483, 0.00304887, NaN, NaN, NaN, 0.0335714, "- N/A -   "
1.79, 52.9584, 0.00311829, NaN, NaN, NaN, 0.0323506, "- N/A -   "
1.83, 53.784, 0.00318216, NaN, NaN, NaN, 0.0347922, "- N/A -   "
1.87, 54.7276, 0.003243246, NaN, NaN, NaN, 0.03601294, "- N/A -   "
1.91, 55.6712, 0.003309888, NaN, NaN, NaN, 0.03601294, "- N/A -   "
1.95, 56.6148, 0.00337653, NaN, NaN, NaN, 0.03601294, "- N/A -   "
1.99, 57.79426, 0.00344873, NaN, NaN, NaN, 0.0347922, "- N/A -   "
2.03, 58.8558, 0.00351537, NaN, NaN, NaN, 0.0335714, "- N/A -   "
2.07, 59.9173, 0.00358479, NaN, NaN, NaN, 0.0323506, "- N/A -   "
2.11, 60.7429, 0.00364865, NaN, NaN, NaN, 0.0335714, "- N/A -   "
2.15, 61.6865, 0.00370696, NaN, NaN, NaN, 0.0372337, "- N/A -   "
2.19, 62.7481, 0.003770829, NaN, NaN, NaN, 0.0396753, "- N/A -   "
2.23, 63.80958, 0.00384302, NaN, NaN, NaN, 0.0372337, "- N/A -   "
2.27, 64.75317, 0.00390689, NaN, NaN, NaN, 0.0372337, "- N/A -   "
2.31, 65.69674, 0.00396798, NaN, NaN, NaN, 0.0396753, "- N/A -   "
2.35, 66.87622, 0.004040174, NaN, NaN, NaN, 0.0384545, "- N/A -   "
2.39, 68.05569, 0.00410959, NaN, NaN, NaN, 0.03601294, "- N/A -   "
2.43, 69.23517, 0.004176235, NaN, NaN, NaN, 0.03601294, "- N/A -   "
2.47, 70.29669, 0.00424288, NaN, NaN, NaN, 0.03601294, "- N/A -   "
2.51, 71.4762, 0.00430952, NaN, NaN, NaN, 0.03601294, "- N/A -   "
2.55, 72.65564, 0.004384491, NaN, NaN, NaN, 0.0335714, "- N/A -   "
2.59, 73.71717, 0.00445391, NaN, NaN, NaN, 0.03112983, "- N/A -   "
2.63, 74.7787, 0.00451778, NaN, NaN, NaN, 0.0323506, "- N/A -   "
2.67, 75.95817, 0.00458164, NaN, NaN, NaN, 0.0335714, "- N/A -   "
2.71, 77.25559, 0.00464828, NaN, NaN, NaN, 0.0335714, "- N/A -   "
2.75, 78.31712, 0.0047177, NaN, NaN, NaN, 0.0323506, "- N/A -   "
[...]
36.81, 1472.72, 0.0614828, NaN, NaN, NaN, 0.0335714, "- N/A -   "
36.84, 1473.91, 0.06153, NaN, NaN, NaN, 0.0347922, "- N/A -   "
36.87, 1475.34, 0.06158558, NaN, NaN, NaN, 0.0335714, "- N/A -   "
36.9, 1476.77, 0.0616328, NaN, NaN, NaN, 0.0335714, "- N/A -   "
36.93, 1478.08, 0.0616828, NaN, NaN, NaN, 0.0347922, "- N/A -   "
36.96, 1479.39, 0.0617272, NaN, NaN, NaN, 0.03601294, "- N/A -   "
36.99, 1480.71, 0.06177162, NaN, NaN, NaN, 0.0384545, "- N/A -   "
37.02, 1481.9, 0.0618188, NaN, NaN, NaN, 0.0396753, "- N/A -   "
37.05, 1483.09, 0.06186603, NaN, NaN, NaN, 0.04089605, "- N/A -   "
37.08, 1484.4, 0.0619105, NaN, NaN, NaN, 0.0433376, "- N/A -   "
37.11, 1485.6, 0.0619577, NaN, NaN, NaN, 0.0445584, "- N/A -   "
37.14, 1486.91, 0.0620049, NaN, NaN, NaN, 0.04699994, "- N/A -   "
37.17, 1488.46, 0.0620576, NaN, NaN, NaN, 0.04577916, "- N/A -   "
37.2, 1490.13, 0.06211594, NaN, NaN, NaN, 0.04211683, "- N/A -   "
37.23, 1491.8, 0.0621715, NaN, NaN, NaN, 0.0384545, "- N/A -   "
37.26, 1493.23, 0.062227, NaN, NaN, NaN, 0.03601294, "- N/A -   "
37.29, 1494.54, 0.062277, NaN, NaN, NaN, 0.03601294, "- N/A -   "
37.32, 1495.97, 0.06232697, NaN, NaN, NaN, 0.03601294, "- N/A -   "
37.35, 1497.28, 0.062377, NaN, NaN, NaN, 0.03601294, "- N/A -   "
37.38, 1498.71, 0.06242971, NaN, NaN, NaN, 0.0347922, "- N/A -   "
37.41, 1500.26, 0.06248247, NaN, NaN, NaN, 0.0335714, "- N/A -   "
37.44, 1501.81, 0.062538, NaN, NaN, NaN, 0.03112983, "- N/A -   "
37.47, 1503.36, 0.06259354, NaN, NaN, NaN, 0.0286883, "- N/A -   "
37.5, 1504.8, 0.0626463, NaN, NaN, NaN, 0.0274675, "- N/A -   "
37.53, 1506.23, 0.06269628, NaN, NaN, NaN, 0.0286883, "- N/A -   "
37.56, 1507.42, 0.0627407, NaN, NaN, NaN, 0.03112983, "- N/A -   "
37.59, 1508.492, 0.0627824, NaN, NaN, NaN, 0.0335714, "- N/A -   "
37.62, 1509.57, 0.06282679, NaN, NaN, NaN, 0.03601294, "- N/A -   "
37.65, 1510.76, 0.06287121, NaN, NaN, NaN, 0.0396753, "- N/A -   "
37.68, 1511.831, 0.06291287, NaN, NaN, NaN, 0.0433376, "- N/A -   "
37.71, 1513.02, 0.0629545, NaN, NaN, NaN, 0.04577916, "- N/A -   "
37.74, 1514.216, 0.06300172, NaN, NaN, NaN, 0.04699994, "- N/A -   "
37.77, 1515.53, 0.06304893, NaN, NaN, NaN, 0.0482207, "- N/A -   "
37.8, 1517.078, 0.06310446, NaN, NaN, NaN, 0.04577916, "- N/A -   "
37.83, 1518.75, 0.06316, NaN, NaN, NaN, 0.0433376, "- N/A -   "
37.86, 1520.18, 0.06321831, NaN, NaN, NaN, 0.04089605, "- N/A -   "
37.89, 1521.729, 0.06327107, NaN, NaN, NaN, 0.0384545, "- N/A -   "
37.92, 1523.4, 0.06332938, NaN, NaN, NaN, 0.03601294, "- N/A -   "
37.95, 1524.83, 0.0633821, NaN, NaN, NaN, 0.0335714, "- N/A -   "
37.98, 1526.38, 0.06343489, NaN, NaN, NaN, 0.0323506, "- N/A -   "
38.01, 1527.81, 0.06348488, NaN, NaN, NaN, 0.0323506, "- N/A -   "
38.04, 1529.24, 0.0635404, NaN, NaN, NaN, 0.03112983, "- N/A -   "
38.07, 1530.67, 0.06359317, NaN, NaN, NaN, 0.0286883, "- N/A -   "
38.1, 1532.22, 0.06364593, NaN, NaN, NaN, 0.0274675, "- N/A -   "
38.13, 1533.65, 0.06369591, NaN, NaN, NaN, 0.0274675, "- N/A -   "
38.16, 1534.97, 0.06374589, NaN, NaN, NaN, 0.0274675, "- N/A -   "
38.19, 1536.16, 0.06379309, NaN, NaN, NaN, 0.0286883, "- N/A -   "
38.22, 1537.59, 0.06383753, NaN, NaN, NaN, 0.03112983, "- N/A -   "
38.25, 1538.42, 0.06387918, NaN, NaN, NaN, 0.0347922, "- N/A -   "
38.28, 1539.736, 0.0639236, NaN, NaN, NaN, 0.0384545, "- N/A -   "
38.31, 1540.81, 0.06396525, NaN, NaN, NaN, 0.04089605, "- N/A -   "
38.34, 1542.12, 0.06401246, NaN, NaN, NaN, 0.04211683, "- N/A -   "
38.37, 1543.552, 0.06406244, NaN, NaN, NaN, 0.04211683, "- N/A -   "
38.383, 1544.03, 0.06408188, NaN, NaN, NaN, 0.0433376, "- N/A -   "