Folder: DigitalTwins-Machine-Learning/2_Tensile_Data (part 44)

File: Hamel_ForceTest_Bolt10_Test10.csv
Time, Load (lb), Position (in), AxialStrain (in), TransverseStrain (in), Auxiliary (), Control Out (V), Stress (psi)
0.0, 9.907588, 0.0, NaN, NaN, NaN, -0.006714277, "- N/A -   "
0.01, 9.907588, 2.776752E-6, NaN, NaN, NaN, -6.103888E-4, "- N/A -   "
0.02, 9.78964, 2.776752E-6, NaN, NaN, NaN, 0.006714277, "- N/A -   "
0.03, 9.907588, 5.553504E-6, NaN, NaN, NaN, 0.0238052, "- N/A -   "
0.04, 9.907588, 8.330256E-6, NaN, NaN, NaN, 0.04211683, "- N/A -   "
0.05, 10.1435, 1.94373e-05, NaN, NaN, NaN, 0.0579869, "- N/A -   "
0.06, 10.26143, 3.60978e-05, NaN, NaN, NaN, 0.0701947, "- N/A -   "
0.07, 10.73322, 5.5535e-05, NaN, NaN, NaN, 0.08118171, "- N/A -   "
0.08, 11.0871, 8.05258E-5, NaN, NaN, NaN, 0.0897272, "- N/A -   "
0.09, 11.323, 0.000108293, NaN, NaN, NaN, 0.09705182, "- N/A -   "
0.1, 11.7947, 1.388376E-4, NaN, NaN, NaN, 0.100714, "- N/A -   "
0.11, 12.14859, 0.000169382, NaN, NaN, NaN, 0.09338949, "- N/A -   "
0.12, 12.6204, 0.000202703, NaN, NaN, NaN, 0.0872856, "- N/A -   "
0.13, 12.8563, 2.304704E-4, NaN, NaN, NaN, 0.08240249, "- N/A -   "
0.14, 13.2101, 0.000255461, NaN, NaN, NaN, 0.07874016, "- N/A -   "
0.15, 13.446, 2.776752E-4, NaN, NaN, NaN, 0.0750778, "- N/A -   "
0.16, 13.7999, 2.998892E-4, NaN, NaN, NaN, 0.07385705, "- N/A -   "
0.17, 13.9178, 3.165497E-4, NaN, NaN, NaN, 0.07263627, "- N/A -   "
0.18, 14.1537, 0.000335987, NaN, NaN, NaN, 0.07141549, "- N/A -   "
0.19, 14.2716, 0.000355424, NaN, NaN, NaN, 0.0701947, "- N/A -   "
0.2, 14.5075, 3.748615E-4, NaN, NaN, NaN, 0.0701947, "- N/A -   "
0.21, 14.8614, 0.000391522, NaN, NaN, NaN, 0.0689739, "- N/A -   "
0.22, 14.9793, 4.13736E-4, NaN, NaN, NaN, 0.06653238, "- N/A -   "
0.23, 15.4511, 4.331733E-4, NaN, NaN, NaN, 0.0653116, "- N/A -   "
0.24, 15.5691, 0.000452611, NaN, NaN, NaN, 0.0640908, "- N/A -   "
0.25, 15.687, 4.720478E-4, NaN, NaN, NaN, 0.06287005, "- N/A -   "
0.26, 15.9229, 0.000491485, NaN, NaN, NaN, 0.06164927, "- N/A -   "
0.27, 16.27675, 0.000510922, NaN, NaN, NaN, 0.0604285, "- N/A -   "
0.28, 16.3947, 0.000533136, NaN, NaN, NaN, 0.0579869, "- N/A -   "
0.29, 16.74854, 5.553504E-4, NaN, NaN, NaN, 0.0555454, "- N/A -   "
0.3, 16.86649, 0.000577564, NaN, NaN, NaN, 0.0543246, "- N/A -   "
0.31, 17.2203, 0.000597002, NaN, NaN, NaN, 0.05188305, "- N/A -   "
0.32, 17.3383, 6.164389E-4, NaN, NaN, NaN, 0.05066227, "- N/A -   "
0.33, 17.5742, 0.000638653, NaN, NaN, NaN, 0.0494415, "- N/A -   "
0.34, 17.8101, 0.00065809, NaN, NaN, NaN, 0.0482207, "- N/A -   "
0.35, 18.046, 0.000677527, NaN, NaN, NaN, 0.04699994, "- N/A -   "
0.36, 18.2819, 6.969647E-4, NaN, NaN, NaN, 0.04577916, "- N/A -   "
0.37, 18.3998, 7.136252E-4, NaN, NaN, NaN, 0.0445584, "- N/A -   "
0.38, 18.6357, 0.000735839, NaN, NaN, NaN, 0.04211683, "- N/A -   "
0.39, 18.7536, 7.552765E-4, NaN, NaN, NaN, 0.04089605, "- N/A -   "
0.4, 18.9895, 7.71937E-4, NaN, NaN, NaN, 0.04089605, "- N/A -   "
0.41, 19.2254, 0.000791374, NaN, NaN, NaN, 0.0396753, "- N/A -   "
0.46, 20.05107, 0.00088023, NaN, NaN, NaN, 0.0384545, "- N/A -   "
0.51, 21.2305, 9.746399E-4, NaN, NaN, NaN, 0.0323506, "- N/A -   "
0.56, 22.1741, 0.00106627, NaN, NaN, NaN, 0.0286883, "- N/A -   "
0.61, 22.88181, 0.00114402, NaN, NaN, NaN, 0.03112983, "- N/A -   "
0.66, 23.7074, 0.001218994, NaN, NaN, NaN, 0.0347922, "- N/A -   "
0.71, 24.65102, 0.00129397, NaN, NaN, NaN, 0.0384545, "- N/A -   "
0.76, 25.4767, 0.00137172, NaN, NaN, NaN, 0.04089605, "- N/A -   "
0.81, 26.18434, 0.00144946, NaN, NaN, NaN, 0.0445584, "- N/A -   "
0.86, 27.1279, 0.00152999, NaN, NaN, NaN, 0.0445584, "- N/A -   "
0.91, 28.0715, 0.00161607, NaN, NaN, NaN, 0.0433376, "- N/A -   "
0.96, 29.251, 0.00169937, NaN, NaN, NaN, 0.0433376, "- N/A -   "
1.01, 30.4304, 0.00179378, NaN, NaN, NaN, 0.0396753, "- N/A -   "
1.06, 31.6099, 0.00188819, NaN, NaN, NaN, 0.0335714, "- N/A -   "
1.11, 32.9073, 0.00198538, NaN, NaN, NaN, 0.0274675, "- N/A -   "
1.16, 33.8509, 0.00206313, NaN, NaN, NaN, 0.0299091, "- N/A -   "
1.21, 34.9125, 0.00214365, NaN, NaN, NaN, 0.03112983, "- N/A -   "
1.26, 36.0919, 0.002226955, NaN, NaN, NaN, 0.03112983, "- N/A -   "
1.31, 37.0355, 0.002304704, NaN, NaN, NaN, 0.0347922, "- N/A -   "
1.36, 38.215, 0.00238523, NaN, NaN, NaN, 0.0347922, "- N/A -   "
1.41, 39.3945, 0.00247131, NaN, NaN, NaN, 0.0335714, "- N/A -   "
1.46, 40.57393, 0.002549058, NaN, NaN, NaN, 0.03601294, "- N/A -   "
1.51, 41.6355, 0.00261848, NaN, NaN, NaN, 0.04211683, "- N/A -   "
1.56, 42.697, 0.00269345, NaN, NaN, NaN, 0.04577916, "- N/A -   "
1.61, 43.9944, 0.00277953, NaN, NaN, NaN, 0.04577916, "- N/A -   "
1.66, 45.40978, 0.00287116, NaN, NaN, NaN, 0.04211683, "- N/A -   "
1.71, 46.8251, 0.00296279, NaN, NaN, NaN, 0.0372337, "- N/A -   "
1.76, 48.2405, 0.00305165, NaN, NaN, NaN, 0.0347922, "- N/A -   "
1.81, 49.5379, 0.00314051, NaN, NaN, NaN, 0.0323506, "- N/A -   "
1.86, 50.83536, 0.00322103, NaN, NaN, NaN, 0.0335714, "- N/A -   "
1.91, 52.1328, 0.00330433, NaN, NaN, NaN, 0.0335714, "- N/A -   "
1.96, 53.4302, 0.00338486, NaN, NaN, NaN, 0.0347922, "- N/A -   "
2.01, 54.9635, 0.00347372, NaN, NaN, NaN, 0.0323506, "- N/A -   "
2.06, 56.143, 0.00355424, NaN, NaN, NaN, 0.0335714, "- N/A -   "
2.11, 57.44042, 0.00362921, NaN, NaN, NaN, 0.0372337, "- N/A -   "
2.16, 58.7378, 0.00370696, NaN, NaN, NaN, 0.04089605, "- N/A -   "
2.21, 60.0353, 0.00378471, NaN, NaN, NaN, 0.04211683, "- N/A -   "
2.26, 61.6865, 0.00387635, NaN, NaN, NaN, 0.0396753, "- N/A -   "
2.31, 62.98395, 0.00395687, NaN, NaN, NaN, 0.0396753, "- N/A -   "
2.36, 64.6352, 0.004048504, NaN, NaN, NaN, 0.0372337, "- N/A -   "
2.41, 66.16853, 0.00413736, NaN, NaN, NaN, 0.0335714, "- N/A -   "
2.46, 67.5839, 0.00422066, NaN, NaN, NaN, 0.0347922, "- N/A -   "
2.51, 68.9993, 0.004298412, NaN, NaN, NaN, 0.03601294, "- N/A -   "
2.56, 70.5326, 0.004387268, NaN, NaN, NaN, 0.0347922, "- N/A -   "
2.61, 71.94796, 0.00447057, NaN, NaN, NaN, 0.0335714, "- N/A -   "
2.66, 73.48127, 0.00455665, NaN, NaN, NaN, 0.0335714, "- N/A -   "
2.71, 75.0146, 0.00463718, NaN, NaN, NaN, 0.0335714, "- N/A -   "
2.76, 76.5479, 0.004726032, NaN, NaN, NaN, 0.03112983, "- N/A -   "
2.81, 78.19917, 0.00481489, NaN, NaN, NaN, 0.0286883, "- N/A -   "
2.86, 79.2607, 0.00488153, NaN, NaN, NaN, 0.03601294, "- N/A -   "
2.91, 80.67606, 0.00495373, NaN, NaN, NaN, 0.04089605, "- N/A -   "
2.96, 82.09144, 0.00503147, NaN, NaN, NaN, 0.0433376, "- N/A -   "
3.01, 83.74271, 0.005112, NaN, NaN, NaN, 0.04577916, "- N/A -   "
3.06, 85.276, 0.0051953, NaN, NaN, NaN, 0.0445584, "- N/A -   "
3.11, 87.04523, 0.00528694, NaN, NaN, NaN, 0.04211683, "- N/A -   "
3.16, 89.05035, 0.00538135, NaN, NaN, NaN, 0.03601294, "- N/A -   "
3.21, 90.58366, 0.00547298, NaN, NaN, NaN, 0.0335714, "- N/A -   "
3.26, 92.35287, 0.00555628, NaN, NaN, NaN, 0.0323506, "- N/A -   "
3.31, 93.8862, 0.005639583, NaN, NaN, NaN, 0.0335714, "- N/A -   "
3.36, 95.5374, 0.00572566, NaN, NaN, NaN, 0.03112983, "- N/A -   "
3.41, 97.54256, 0.005817295, NaN, NaN, NaN, 0.0274675, "- N/A -   "
3.46, 98.9579, 0.00588949, NaN, NaN, NaN, 0.0323506, "- N/A -   "
3.51, 100.3733, 0.005964463, NaN, NaN, NaN, 0.03601294, "- N/A -   "
3.56, 101.789, 0.006036659, NaN, NaN, NaN, 0.04089605, "- N/A -   "
3.61, 103.204, 0.006108854, NaN, NaN, NaN, 0.04577916, "- N/A -   "
3.66, 105.091, 0.006192157, NaN, NaN, NaN, 0.04699994, "- N/A -   "
[...]
42.11, 1680.334, 0.07031569, NaN, NaN, NaN, 0.0286883, "- N/A -   "
42.21, 1684.39, 0.07047674, NaN, NaN, NaN, 0.03112983, "- N/A -   "
42.31, 1688.56, 0.07063501, NaN, NaN, NaN, 0.0347922, "- N/A -   "
42.41, 1692.74, 0.0707988, NaN, NaN, NaN, 0.0372337, "- N/A -   "
42.51, 1696.55, 0.070946, NaN, NaN, NaN, 0.0445584, "- N/A -   "
42.61, 1701.08, 0.07111817, NaN, NaN, NaN, 0.04211683, "- N/A -   "
42.71, 1706.09, 0.07130421, NaN, NaN, NaN, 0.0335714, "- N/A -   "
42.81, 1710.147, 0.07146526, NaN, NaN, NaN, 0.03601294, "- N/A -   "
42.91, 1714.56, 0.07163465, NaN, NaN, NaN, 0.03601294, "- N/A -   "
43.01, 1718.97, 0.071804, NaN, NaN, NaN, 0.0335714, "- N/A -   "
43.11, 1722.907, 0.0719568, NaN, NaN, NaN, 0.0396753, "- N/A -   "
43.21, 1727.44, 0.07212613, NaN, NaN, NaN, 0.0384545, "- N/A -   "
43.31, 1731.61, 0.07228718, NaN, NaN, NaN, 0.04089605, "- N/A -   "
43.41, 1736.26, 0.0724649, NaN, NaN, NaN, 0.03601294, "- N/A -   "
43.51, 1740.68, 0.07263705, NaN, NaN, NaN, 0.0335714, "- N/A -   "
43.61, 1745.21, 0.07281199, NaN, NaN, NaN, 0.03112983, "- N/A -   "
43.71, 1749.5, 0.07297859, NaN, NaN, NaN, 0.0299091, "- N/A -   "
43.81, 1753.197, 0.0731285, NaN, NaN, NaN, 0.0384545, "- N/A -   "
43.91, 1757.25, 0.07328404, NaN, NaN, NaN, 0.0433376, "- N/A -   "
44.01, 1761.54, 0.07344787, NaN, NaN, NaN, 0.0445584, "- N/A -   "
44.11, 1766.55, 0.07363668, NaN, NaN, NaN, 0.0347922, "- N/A -   "
44.21, 1770.85, 0.07380329, NaN, NaN, NaN, 0.0347922, "- N/A -   "
44.31, 1775.5, 0.07397822, NaN, NaN, NaN, 0.0299091, "- N/A -   "
44.41, 1779.55, 0.0741393, NaN, NaN, NaN, 0.0335714, "- N/A -   "
44.51, 1783.25, 0.07428922, NaN, NaN, NaN, 0.04089605, "- N/A -   "
44.61, 1787.303, 0.07445027, NaN, NaN, NaN, 0.0445584, "- N/A -   "
44.71, 1791.95, 0.07462521, NaN, NaN, NaN, 0.04089605, "- N/A -   "
44.81, 1796.96, 0.07480847, NaN, NaN, NaN, 0.0323506, "- N/A -   "
44.91, 1801.37, 0.07498063, NaN, NaN, NaN, 0.0299091, "- N/A -   "
45.01, 1805.67, 0.07515001, NaN, NaN, NaN, 0.0299091, "- N/A -   "
45.11, 1809.13, 0.0752944, NaN, NaN, NaN, 0.0396753, "- N/A -   "
45.21, 1813.18, 0.07544435, NaN, NaN, NaN, 0.04577916, "- N/A -   "
45.31, 1817.593, 0.07561373, NaN, NaN, NaN, 0.0445584, "- N/A -   "
45.41, 1822.24, 0.07579144, NaN, NaN, NaN, 0.04089605, "- N/A -   "
45.51, 1827.25, 0.07598026, NaN, NaN, NaN, 0.0299091, "- N/A -   "
45.61, 1831.307, 0.07614131, NaN, NaN, NaN, 0.0335714, "- N/A -   "
45.71, 1835.24, 0.0762968, NaN, NaN, NaN, 0.0384545, "- N/A -   "
45.81, 1839.77, 0.0764634, NaN, NaN, NaN, 0.0372337, "- N/A -   "
45.91, 1843.47, 0.07661614, NaN, NaN, NaN, 0.0433376, "- N/A -   "
46.01, 1848.12, 0.07679108, NaN, NaN, NaN, 0.04089605, "- N/A -   "
46.11, 1853.13, 0.07698267, NaN, NaN, NaN, 0.0299091, "- N/A -   "
46.21, 1857.18, 0.07714094, NaN, NaN, NaN, 0.0335714, "- N/A -   "
46.31, 1861.12, 0.07729645, NaN, NaN, NaN, 0.0384545, "- N/A -   "
46.41, 1865.89, 0.0774686, NaN, NaN, NaN, 0.0347922, "- N/A -   "
46.51, 1869.47, 0.0776241, NaN, NaN, NaN, 0.0396753, "- N/A -   "
46.61, 1873.88, 0.07779071, NaN, NaN, NaN, 0.0396753, "- N/A -   "
46.71, 1878.29, 0.07796009, NaN, NaN, NaN, 0.0384545, "- N/A -   "
46.81, 1882.824, 0.07813502, NaN, NaN, NaN, 0.0347922, "- N/A -   "
46.91, 1887.117, 0.0783044, NaN, NaN, NaN, 0.0347922, "- N/A -   "
47.01, 1891.53, 0.0784738, NaN, NaN, NaN, 0.0323506, "- N/A -   "
47.11, 1895.703, 0.0786348, NaN, NaN, NaN, 0.03601294, "- N/A -   "
47.21, 1899.76, 0.07879589, NaN, NaN, NaN, 0.0372337, "- N/A -   "
47.31, 1903.57, 0.07894861, NaN, NaN, NaN, 0.0433376, "- N/A -   "
47.385, 1906.91, 0.07907634, NaN, NaN, NaN, 0.0433376, "- N/A -   "

File: Hamel_ForceTest_Bolt10_Test11.csv
Time, Load (lb), Position (in), AxialStrain (in), TransverseStrain (in), Auxiliary (), Control Out (V), Stress (psi)
0.0, 13.446, 0.0, NaN, NaN, NaN, -0.007935055, "- N/A -   "
0.01, 13.446, -2.776752E-6, NaN, NaN, NaN, -6.103888E-4, "- N/A -   "
0.02, 13.446, 0.0, NaN, NaN, NaN, 0.006714277, "- N/A -   "
0.03, 13.564, 0.0, NaN, NaN, NaN, 0.0250259, "- N/A -   "
0.04, 13.564, 5.553504E-6, NaN, NaN, NaN, 0.04211683, "- N/A -   "
0.05, 13.6819, 1.66605e-05, NaN, NaN, NaN, 0.05676616, "- N/A -   "
0.06, 14.0357, 3.054427E-5, NaN, NaN, NaN, 0.0701947, "- N/A -   "
0.07, 14.5075, 5.27583e-05, NaN, NaN, NaN, 0.0799609, "- N/A -   "
0.08, 15.0973, 7.774905E-5, NaN, NaN, NaN, 0.0897272, "- N/A -   "
0.09, 15.687, 0.000105517, NaN, NaN, NaN, 0.09705182, "- N/A -   "
0.1, 16.3947, 0.000136061, NaN, NaN, NaN, 0.100714, "- N/A -   "
0.11, 16.9844, 0.000166605, NaN, NaN, NaN, 0.09461027, "- N/A -   "
0.12, 17.5742, 0.000197149, NaN, NaN, NaN, 0.08850638, "- N/A -   "
0.13, 18.046, 0.00022214, NaN, NaN, NaN, 0.08362327, "- N/A -   "
0.14, 18.7536, 0.000249908, NaN, NaN, NaN, 0.07874016, "- N/A -   "
0.15, 19.1075, 0.000274898, NaN, NaN, NaN, 0.0750778, "- N/A -   "
0.16, 19.57928, 0.000297112, NaN, NaN, NaN, 0.07263627, "- N/A -   "
0.17, 19.9331, 3.165497E-4, NaN, NaN, NaN, 0.07141549, "- N/A -   "
0.18, 20.287, 0.000335987, NaN, NaN, NaN, 0.0701947, "- N/A -   "
0.19, 20.6408, 0.000355424, NaN, NaN, NaN, 0.0689739, "- N/A -   "
0.2, 21.1126, 3.748615E-4, NaN, NaN, NaN, 0.06775316, "- N/A -   "
0.21, 21.46644, 0.000397076, NaN, NaN, NaN, 0.0653116, "- N/A -   "
0.22, 21.8203, 0.000416513, NaN, NaN, NaN, 0.0653116, "- N/A -   "
0.23, 22.1741, 0.00043595, NaN, NaN, NaN, 0.0640908, "- N/A -   "
0.24, 22.528, 4.553873E-4, NaN, NaN, NaN, 0.06287005, "- N/A -   "
0.25, 22.88181, 0.000474825, NaN, NaN, NaN, 0.06164927, "- N/A -   "
0.26, 23.2357, 0.000491485, NaN, NaN, NaN, 0.0604285, "- N/A -   "
0.27, 23.5895, 0.000510922, NaN, NaN, NaN, 0.0592077, "- N/A -   "
0.28, 23.82539, 0.000533136, NaN, NaN, NaN, 0.0579869, "- N/A -   "
0.29, 24.29718, 0.000549797, NaN, NaN, NaN, 0.05676616, "- N/A -   "
0.3, 24.65102, 5.720109E-4, NaN, NaN, NaN, 0.0543246, "- N/A -   "
0.31, 25.0049, 0.000591448, NaN, NaN, NaN, 0.0531038, "- N/A -   "
0.32, 25.4767, 6.136621E-4, NaN, NaN, NaN, 0.05066227, "- N/A -   "
0.33, 25.8305, 6.330994E-4, NaN, NaN, NaN, 0.0494415, "- N/A -   "
0.34, 26.0664, 0.000655313, NaN, NaN, NaN, 0.04699994, "- N/A -   "
0.35, 26.4202, 6.747507E-4, NaN, NaN, NaN, 0.04699994, "- N/A -   "
0.36, 26.7741, 6.914112E-4, NaN, NaN, NaN, 0.04577916, "- N/A -   "
0.37, 27.1279, 7.108485E-4, NaN, NaN, NaN, 0.0445584, "- N/A -   "
0.38, 27.4818, 7.302857E-4, NaN, NaN, NaN, 0.0433376, "- N/A -   "
0.39, 27.8356, 7.49723E-4, NaN, NaN, NaN, 0.04211683, "- N/A -   "
0.4, 28.1894, 7.691603E-4, NaN, NaN, NaN, 0.04089605, "- N/A -   "
0.41, 28.42534, 0.000785821, NaN, NaN, NaN, 0.04089605, "- N/A -   "
0.42, 28.89713, 0.000802481, NaN, NaN, NaN, 0.04089605, "- N/A -   "
0.43, 29.0151, 8.191418E-4, NaN, NaN, NaN, 0.04211683, "- N/A -   "
0.44, 29.3689, 8.358023E-4, NaN, NaN, NaN, 0.04211683, "- N/A -   "
0.45, 29.7228, 8.524628E-4, NaN, NaN, NaN, 0.04211683, "- N/A -   "
0.46, 29.9587, 8.691233E-4, NaN, NaN, NaN, 0.04089605, "- N/A -   "
0.47, 30.3125, 8.857838E-4, NaN, NaN, NaN, 0.04089605, "- N/A -   "
0.48, 30.6663, 9.052211E-4, NaN, NaN, NaN, 0.0396753, "- N/A -   "
0.49, 31.0202, 9.246584E-4, NaN, NaN, NaN, 0.0384545, "- N/A -   "
0.5, 31.374, 9.440956E-4, NaN, NaN, NaN, 0.0372337, "- N/A -   "
0.51, 31.8458, 9.663096E-4, NaN, NaN, NaN, 0.03601294, "- N/A -   "
0.57, 33.9689, 0.00108016, NaN, NaN, NaN, 0.0299091, "- N/A -   "
0.63, 35.7381, 0.00117734, NaN, NaN, NaN, 0.0299091, "- N/A -   "
0.69, 37.6252, 0.00127175, NaN, NaN, NaN, 0.0323506, "- N/A -   "
0.75, 39.2765, 0.00136339, NaN, NaN, NaN, 0.03601294, "- N/A -   "
0.81, 40.8098, 0.00144946, NaN, NaN, NaN, 0.0433376, "- N/A -   "
0.87, 42.93288, 0.00154943, NaN, NaN, NaN, 0.0433376, "- N/A -   "
0.93, 44.82, 0.00164661, NaN, NaN, NaN, 0.0433376, "- N/A -   "
0.99, 46.8251, 0.00174658, NaN, NaN, NaN, 0.0433376, "- N/A -   "
1.05, 49.0661, 0.00185487, NaN, NaN, NaN, 0.04089605, "- N/A -   "
1.11, 51.543, 0.00197149, NaN, NaN, NaN, 0.0323506, "- N/A -   "
1.17, 53.784, 0.00207979, NaN, NaN, NaN, 0.0286883, "- N/A -   "
1.23, 55.7892, 0.00217697, NaN, NaN, NaN, 0.0299091, "- N/A -   "
1.29, 57.91221, 0.002271383, NaN, NaN, NaN, 0.0323506, "- N/A -   "
1.35, 59.79937, 0.00236857, NaN, NaN, NaN, 0.0347922, "- N/A -   "
1.41, 61.9224, 0.00246576, NaN, NaN, NaN, 0.03601294, "- N/A -   "
1.47, 63.92753, 0.00256017, NaN, NaN, NaN, 0.0384545, "- N/A -   "
1.53, 65.81469, 0.00264624, NaN, NaN, NaN, 0.0433376, "- N/A -   "
1.59, 67.9377, 0.002743431, NaN, NaN, NaN, 0.0445584, "- N/A -   "
1.65, 70.41464, 0.00284895, NaN, NaN, NaN, 0.04211683, "- N/A -   "
1.71, 72.89154, 0.002965571, NaN, NaN, NaN, 0.03601294, "- N/A -   "
1.77, 75.25049, 0.00307386, NaN, NaN, NaN, 0.0323506, "- N/A -   "
1.83, 77.25559, 0.003165497, NaN, NaN, NaN, 0.0347922, "- N/A -   "
1.89, 79.37865, 0.003259907, NaN, NaN, NaN, 0.0372337, "- N/A -   "
1.95, 81.8555, 0.00336542, NaN, NaN, NaN, 0.03601294, "- N/A -   "
2.01, 84.09654, 0.003468163, NaN, NaN, NaN, 0.0335714, "- N/A -   "
2.07, 86.33755, 0.00356535, NaN, NaN, NaN, 0.0347922, "- N/A -   "
2.13, 88.4606, 0.00366254, NaN, NaN, NaN, 0.0372337, "- N/A -   "
2.19, 90.4657, 0.00375139, NaN, NaN, NaN, 0.04089605, "- N/A -   "
2.25, 93.0606, 0.00385969, NaN, NaN, NaN, 0.0372337, "- N/A -   "
2.31, 95.41951, 0.00395965, NaN, NaN, NaN, 0.0372337, "- N/A -   "
2.37, 97.6605, 0.00406239, NaN, NaN, NaN, 0.0372337, "- N/A -   "
2.43, 100.019, 0.00416235, NaN, NaN, NaN, 0.03601294, "- N/A -   "
2.49, 102.26, 0.00425954, NaN, NaN, NaN, 0.0372337, "- N/A -   "
2.55, 104.855, 0.00436783, NaN, NaN, NaN, 0.0335714, "- N/A -   "
2.61, 107.0963, 0.00447057, NaN, NaN, NaN, 0.0323506, "- N/A -   "
2.67, 109.455, 0.004567757, NaN, NaN, NaN, 0.0335714, "- N/A -   "
2.73, 111.8142, 0.00466772, NaN, NaN, NaN, 0.0335714, "- N/A -   "
2.79, 114.173, 0.00477046, NaN, NaN, NaN, 0.0323506, "- N/A -   "
2.85, 116.414, 0.004864869, NaN, NaN, NaN, 0.0347922, "- N/A -   "
2.91, 118.419, 0.00495373, NaN, NaN, NaN, 0.0396753, "- N/A -   "
2.97, 120.66, 0.00504813, NaN, NaN, NaN, 0.04211683, "- N/A -   "
3.03, 123.019, 0.005145321, NaN, NaN, NaN, 0.0445584, "- N/A -   "
3.09, 125.614, 0.00525084, NaN, NaN, NaN, 0.04089605, "- N/A -   "
3.15, 128.4448, 0.005370238, NaN, NaN, NaN, 0.0335714, "- N/A -   "
3.21, 130.6858, 0.00546742, NaN, NaN, NaN, 0.0335714, "- N/A -   "
3.27, 133.045, 0.00556739, NaN, NaN, NaN, 0.0347922, "- N/A -   "
3.33, 135.522, 0.00566735, NaN, NaN, NaN, 0.0335714, "- N/A -   "
3.39, 138.234, 0.00577842, NaN, NaN, NaN, 0.0286883, "- N/A -   "
3.45, 140.357, 0.005870053, NaN, NaN, NaN, 0.0323506, "- N/A -   "
3.51, 142.481, 0.005961686, NaN, NaN, NaN, 0.03601294, "- N/A -   "
3.57, 144.486, 0.006050542, NaN, NaN, NaN, 0.04211683, "- N/A -   "
3.63, 146.727, 0.006142175, NaN, NaN, NaN, 0.04577916, "- N/A -   "
3.69, 148.968, 0.006242138, NaN, NaN, NaN, 0.04699994, "- N/A -   "
3.75, 151.916, 0.006355985, NaN, NaN, NaN, 0.04089605, "- N/A -   "
3.81, 154.629, 0.006467055, NaN, NaN, NaN, 0.0347922, "- N/A -   "
[...]
34.93, 1408.32, 0.05830624, NaN, NaN, NaN, 0.04577916, "- N/A -   "
35.2, 1421.438, 0.0587922, NaN, NaN, NaN, 0.0299091, "- N/A -   "
35.47, 1433.01, 0.05922812, NaN, NaN, NaN, 0.0372337, "- N/A -   "
35.74, 1444.22, 0.05965296, NaN, NaN, NaN, 0.0482207, "- N/A -   "
36.01, 1456.975, 0.0601306, NaN, NaN, NaN, 0.0372337, "- N/A -   "
36.28, 1468.66, 0.06056651, NaN, NaN, NaN, 0.04211683, "- N/A -   "
36.55, 1481.18, 0.0610358, NaN, NaN, NaN, 0.0347922, "- N/A -   "
36.82, 1493.35, 0.0614884, NaN, NaN, NaN, 0.0335714, "- N/A -   "
37.09, 1504.2, 0.06191046, NaN, NaN, NaN, 0.04577916, "- N/A -   "
37.36, 1517.078, 0.0623825, NaN, NaN, NaN, 0.0347922, "- N/A -   "
37.63, 1528.884, 0.06282679, NaN, NaN, NaN, 0.0372337, "- N/A -   "
37.9, 1541.05, 0.06328218, NaN, NaN, NaN, 0.0347922, "- N/A -   "
38.17, 1553.57, 0.06374867, NaN, NaN, NaN, 0.0274675, "- N/A -   "
38.44, 1564.3, 0.06415963, NaN, NaN, NaN, 0.0445584, "- N/A -   "
38.71, 1577.3, 0.06464001, NaN, NaN, NaN, 0.03112983, "- N/A -   "
38.98, 1588.987, 0.0650787, NaN, NaN, NaN, 0.03601294, "- N/A -   "
39.25, 1601.39, 0.06553968, NaN, NaN, NaN, 0.03112983, "- N/A -   "
39.52, 1613.55, 0.06599229, NaN, NaN, NaN, 0.0299091, "- N/A -   "
39.79, 1625.12, 0.06642546, NaN, NaN, NaN, 0.0384545, "- N/A -   "
40.06, 1637.16, 0.0668753, NaN, NaN, NaN, 0.0384545, "- N/A -   "
40.33, 1649.45, 0.06733901, NaN, NaN, NaN, 0.0335714, "- N/A -   "
40.6, 1660.78, 0.06776663, NaN, NaN, NaN, 0.0433376, "- N/A -   "
40.87, 1673.54, 0.06823868, NaN, NaN, NaN, 0.0335714, "- N/A -   "
41.14, 1684.63, 0.06866074, NaN, NaN, NaN, 0.04577916, "- N/A -   "
41.41, 1697.27, 0.06913279, NaN, NaN, NaN, 0.0347922, "- N/A -   "
41.68, 1709.07, 0.0695743, NaN, NaN, NaN, 0.0384545, "- N/A -   "
41.95, 1720.88, 0.0700241, NaN, NaN, NaN, 0.0384545, "- N/A -   "
42.22, 1732.92, 0.07047952, NaN, NaN, NaN, 0.0372337, "- N/A -   "
42.49, 1744.37, 0.07091269, NaN, NaN, NaN, 0.0433376, "- N/A -   "
42.76, 1757.01, 0.0713875, NaN, NaN, NaN, 0.0335714, "- N/A -   "
43.03, 1768.819, 0.0718318, NaN, NaN, NaN, 0.03601294, "- N/A -   "
43.3, 1780.51, 0.07227052, NaN, NaN, NaN, 0.0396753, "- N/A -   "
43.57, 1793.15, 0.0727453, NaN, NaN, NaN, 0.0286883, "- N/A -   "
43.84, 1803.64, 0.0731563, NaN, NaN, NaN, 0.04577916, "- N/A -   "
44.11, 1816.76, 0.07363946, NaN, NaN, NaN, 0.03112983, "- N/A -   "
44.38, 1828.68, 0.07409485, NaN, NaN, NaN, 0.03112983, "- N/A -   "
44.65, 1839.65, 0.0745114, NaN, NaN, NaN, 0.0445584, "- N/A -   "
44.92, 1852.77, 0.07500007, NaN, NaN, NaN, 0.0274675, "- N/A -   "
45.19, 1863.15, 0.07540825, NaN, NaN, NaN, 0.04577916, "- N/A -   "
45.46, 1876.26, 0.0758942, NaN, NaN, NaN, 0.0299091, "- N/A -   "
45.73, 1887.59, 0.07632458, NaN, NaN, NaN, 0.0384545, "- N/A -   "
46, 1899.04, 0.07676053, NaN, NaN, NaN, 0.0445584, "- N/A -   "
46.27, 1911.68, 0.07723535, NaN, NaN, NaN, 0.0335714, "- N/A -   "
46.54, 1922.89, 0.0776657, NaN, NaN, NaN, 0.04211683, "- N/A -   "
46.81, 1935.29, 0.07813224, NaN, NaN, NaN, 0.0347922, "- N/A -   "
47.08, 1946.98, 0.07858208, NaN, NaN, NaN, 0.0347922, "- N/A -   "
47.35, 1958.07, 0.0790125, NaN, NaN, NaN, 0.0445584, "- N/A -   "
47.62, 1970.71, 0.07949008, NaN, NaN, NaN, 0.0323506, "- N/A -   "
47.89, 1981.92, 0.07992326, NaN, NaN, NaN, 0.0384545, "- N/A -   "
48.16, 1993.73, 0.08037864, NaN, NaN, NaN, 0.03601294, "- N/A -   "
48.43, 2006.01, 0.08084513, NaN, NaN, NaN, 0.0286883, "- N/A -   "
48.7, 2016.27, 0.08125887, NaN, NaN, NaN, 0.0445584, "- N/A -   "
48.97, 2029.27, 0.08175313, NaN, NaN, NaN, 0.0274675, "- N/A -   "
49.177, 2037.26, 0.08207245, NaN, NaN, NaN, 0.0372337, "- N/A -   "