Folder: DigitalTwins-Machine-Learning/2_Tensile_Data (part 6)

File: Hamel_ForceTest_Bolt3_Test9.csv
Time, Load (lb), Position (in), AxialStrain (in), TransverseStrain (in), Auxiliary (), Control Out (V), Stress (psi)
0.0, 11.4409, 0.0, NaN, NaN, NaN, -0.006714277, "- N/A -   "
0.01, 11.4409, 2.776752E-6, NaN, NaN, NaN, -6.103888E-4, "- N/A -   "
0.02, 11.4409, 2.776752E-6, NaN, NaN, NaN, 0.006714277, "- N/A -   "
0.03, 11.4409, 2.776752E-6, NaN, NaN, NaN, 0.0250259, "- N/A -   "
0.04, 11.5589, 8.330256E-6, NaN, NaN, NaN, 0.04211683, "- N/A -   "
0.05, 11.5589, 1.94373e-05, NaN, NaN, NaN, 0.05676616, "- N/A -   "
0.06, 11.9127, 3.3321e-05, NaN, NaN, NaN, 0.0701947, "- N/A -   "
0.07, 12.14859, 5.5535e-05, NaN, NaN, NaN, 0.0799609, "- N/A -   "
0.08, 12.5024, 8.05258E-5, NaN, NaN, NaN, 0.0897272, "- N/A -   "
0.09, 12.8563, 0.000108293, NaN, NaN, NaN, 0.09705182, "- N/A -   "
0.1, 13.3281, 1.388376E-4, NaN, NaN, NaN, 0.100714, "- N/A -   "
0.11, 13.6819, 0.000172159, NaN, NaN, NaN, 0.09338949, "- N/A -   "
0.12, 14.0357, 0.000199926, NaN, NaN, NaN, 0.0872856, "- N/A -   "
0.13, 14.5075, 0.000227694, NaN, NaN, NaN, 0.08240249, "- N/A -   "
0.14, 14.8614, 2.526844E-4, NaN, NaN, NaN, 0.07874016, "- N/A -   "
0.15, 15.0973, 0.000280452, NaN, NaN, NaN, 0.0750778, "- N/A -   "
0.16, 15.4511, 2.998892E-4, NaN, NaN, NaN, 0.07263627, "- N/A -   "
0.17, 15.687, 3.221032E-4, NaN, NaN, NaN, 0.07141549, "- N/A -   "
0.18, 16.0409, 0.00034154, NaN, NaN, NaN, 0.0689739, "- N/A -   "
0.19, 16.1588, 0.000360978, NaN, NaN, NaN, 0.0689739, "- N/A -   "
0.2, 16.5126, 3.80415E-4, NaN, NaN, NaN, 0.06775316, "- N/A -   "
0.21, 16.6306, 0.000397076, NaN, NaN, NaN, 0.06653238, "- N/A -   "
0.22, 16.9844, 0.000416513, NaN, NaN, NaN, 0.0653116, "- N/A -   "
0.23, 17.2203, 0.00043595, NaN, NaN, NaN, 0.0653116, "- N/A -   "
0.24, 17.4562, 0.000452611, NaN, NaN, NaN, 0.0640908, "- N/A -   "
0.25, 17.6921, 4.720478E-4, NaN, NaN, NaN, 0.06287005, "- N/A -   "
0.26, 17.928, 0.000491485, NaN, NaN, NaN, 0.06287005, "- N/A -   "
0.27, 18.2819, 0.000510922, NaN, NaN, NaN, 0.0604285, "- N/A -   "
0.28, 18.3998, 0.00053036, NaN, NaN, NaN, 0.0592077, "- N/A -   "
0.29, 18.7536, 0.000549797, NaN, NaN, NaN, 0.0579869, "- N/A -   "
0.3, 18.9895, 5.720109E-4, NaN, NaN, NaN, 0.05676616, "- N/A -   "
0.31, 19.3434, 0.000591448, NaN, NaN, NaN, 0.0543246, "- N/A -   "
0.32, 19.6972, 6.136621E-4, NaN, NaN, NaN, 0.05188305, "- N/A -   "
0.33, 20.05107, 0.000635876, NaN, NaN, NaN, 0.05066227, "- N/A -   "
0.34, 20.287, 0.000655313, NaN, NaN, NaN, 0.0482207, "- N/A -   "
0.35, 20.6408, 6.747507E-4, NaN, NaN, NaN, 0.04699994, "- N/A -   "
0.36, 20.8767, 0.000694188, NaN, NaN, NaN, 0.04577916, "- N/A -   "
0.37, 21.1126, 7.136252E-4, NaN, NaN, NaN, 0.04577916, "- N/A -   "
0.38, 21.46644, 7.302857E-4, NaN, NaN, NaN, 0.0445584, "- N/A -   "
0.39, 21.7023, 0.0007525, NaN, NaN, NaN, 0.0433376, "- N/A -   "
0.4, 22.0562, 7.71937E-4, NaN, NaN, NaN, 0.04089605, "- N/A -   "
0.41, 22.29207, 7.885975E-4, NaN, NaN, NaN, 0.04089605, "- N/A -   "
0.42, 22.528, 8.080348E-4, NaN, NaN, NaN, 0.0396753, "- N/A -   "
0.43, 22.7639, 8.27472E-4, NaN, NaN, NaN, 0.0384545, "- N/A -   "
0.44, 23.1177, 0.000844133, NaN, NaN, NaN, 0.0384545, "- N/A -   "
0.48, 24.29718, 0.000913551, NaN, NaN, NaN, 0.0372337, "- N/A -   "
0.52, 25.4767, 9.885236E-4, NaN, NaN, NaN, 0.0335714, "- N/A -   "
0.56, 26.7741, 0.00106072, NaN, NaN, NaN, 0.03112983, "- N/A -   "
0.6, 27.8356, 0.00112736, NaN, NaN, NaN, 0.03112983, "- N/A -   "
0.64, 28.89713, 0.001194, NaN, NaN, NaN, 0.03112983, "- N/A -   "
0.68, 30.0766, 0.00126065, NaN, NaN, NaN, 0.03112983, "- N/A -   "
0.72, 31.1381, 0.00132173, NaN, NaN, NaN, 0.0335714, "- N/A -   "
0.76, 32.1997, 0.00138005, NaN, NaN, NaN, 0.0372337, "- N/A -   "
0.8, 33.2612, 0.00143836, NaN, NaN, NaN, 0.04089605, "- N/A -   "
0.84, 34.3227, 0.001505, NaN, NaN, NaN, 0.04211683, "- N/A -   "
0.88, 35.6201, 0.00156886, NaN, NaN, NaN, 0.0433376, "- N/A -   "
0.92, 36.6817, 0.00162995, NaN, NaN, NaN, 0.04577916, "- N/A -   "
0.96, 37.8611, 0.0016966, NaN, NaN, NaN, 0.04577916, "- N/A -   "
1, 39.15856, 0.00176324, NaN, NaN, NaN, 0.0445584, "- N/A -   "
1.04, 40.456, 0.00184099, NaN, NaN, NaN, 0.04089605, "- N/A -   "
1.08, 41.8714, 0.00191596, NaN, NaN, NaN, 0.03601294, "- N/A -   "
1.12, 43.40467, 0.00199371, NaN, NaN, NaN, 0.03112983, "- N/A -   "
1.16, 44.70209, 0.00206313, NaN, NaN, NaN, 0.03112983, "- N/A -   "
1.2, 45.9995, 0.00213255, NaN, NaN, NaN, 0.0286883, "- N/A -   "
1.24, 47.2969, 0.00220196, NaN, NaN, NaN, 0.0274675, "- N/A -   "
1.28, 48.47641, 0.00226583, NaN, NaN, NaN, 0.0286883, "- N/A -   "
1.32, 49.6559, 0.00232414, NaN, NaN, NaN, 0.0335714, "- N/A -   "
1.36, 50.7174, 0.00238523, NaN, NaN, NaN, 0.0347922, "- N/A -   "
1.4, 52.01483, 0.002449095, NaN, NaN, NaN, 0.03601294, "- N/A -   "
1.44, 53.19431, 0.00251574, NaN, NaN, NaN, 0.03601294, "- N/A -   "
1.48, 54.3738, 0.00257683, NaN, NaN, NaN, 0.0384545, "- N/A -   "
1.52, 55.55326, 0.00263791, NaN, NaN, NaN, 0.04089605, "- N/A -   "
1.56, 56.85068, 0.002699, NaN, NaN, NaN, 0.0433376, "- N/A -   "
1.6, 57.91221, 0.00276009, NaN, NaN, NaN, 0.04699994, "- N/A -   "
1.64, 59.3276, 0.00282673, NaN, NaN, NaN, 0.04699994, "- N/A -   "
1.68, 60.7429, 0.00290448, NaN, NaN, NaN, 0.04211683, "- N/A -   "
1.72, 62.3942, 0.00298223, NaN, NaN, NaN, 0.0372337, "- N/A -   "
1.76, 63.80958, 0.00305165, NaN, NaN, NaN, 0.0347922, "- N/A -   "
1.8, 65.22495, 0.003123846, NaN, NaN, NaN, 0.0335714, "- N/A -   "
1.84, 66.40443, 0.00318216, NaN, NaN, NaN, 0.03601294, "- N/A -   "
1.88, 67.5839, 0.003246023, NaN, NaN, NaN, 0.0372337, "- N/A -   "
1.92, 69.11722, 0.00331544, NaN, NaN, NaN, 0.0372337, "- N/A -   "
1.96, 70.41464, 0.00338208, NaN, NaN, NaN, 0.03601294, "- N/A -   "
2, 71.83001, 0.00345428, NaN, NaN, NaN, 0.0347922, "- N/A -   "
2.04, 73.36333, 0.003523698, NaN, NaN, NaN, 0.0323506, "- N/A -   "
2.08, 74.66075, 0.00359034, NaN, NaN, NaN, 0.0323506, "- N/A -   "
2.12, 75.95817, 0.00364865, NaN, NaN, NaN, 0.03601294, "- N/A -   "
2.16, 77.13765, 0.00370974, NaN, NaN, NaN, 0.0384545, "- N/A -   "
2.2, 78.4351, 0.003773606, NaN, NaN, NaN, 0.04089605, "- N/A -   "
2.24, 79.96838, 0.00384302, NaN, NaN, NaN, 0.0384545, "- N/A -   "
2.28, 81.14786, 0.00390967, NaN, NaN, NaN, 0.0396753, "- N/A -   "
2.32, 82.44528, 0.00397076, NaN, NaN, NaN, 0.04089605, "- N/A -   "
2.36, 84.09654, 0.00404295, NaN, NaN, NaN, 0.0384545, "- N/A -   "
2.4, 85.51192, 0.004115146, NaN, NaN, NaN, 0.03601294, "- N/A -   "
2.44, 86.92729, 0.004184565, NaN, NaN, NaN, 0.0347922, "- N/A -   "
2.48, 88.22471, 0.00424843, NaN, NaN, NaN, 0.03601294, "- N/A -   "
2.52, 89.6401, 0.00431785, NaN, NaN, NaN, 0.03601294, "- N/A -   "
2.56, 91.1734, 0.00439004, NaN, NaN, NaN, 0.0335714, "- N/A -   "
2.6, 92.70671, 0.00445946, NaN, NaN, NaN, 0.0323506, "- N/A -   "
2.64, 94.0041, 0.004523329, NaN, NaN, NaN, 0.0323506, "- N/A -   "
2.68, 95.30156, 0.004587194, NaN, NaN, NaN, 0.0335714, "- N/A -   "
2.72, 96.71693, 0.004656613, NaN, NaN, NaN, 0.0335714, "- N/A -   "
2.76, 98.13229, 0.004723255, NaN, NaN, NaN, 0.0323506, "- N/A -   "
2.8, 99.54767, 0.0047899, NaN, NaN, NaN, 0.0323506, "- N/A -   "
2.84, 100.727, 0.00485099, NaN, NaN, NaN, 0.0347922, "- N/A -   "
2.88, 101.907, 0.004909297, NaN, NaN, NaN, 0.0384545, "- N/A -   "
2.92, 103.086, 0.004970386, NaN, NaN, NaN, 0.04089605, "- N/A -   "
[...]
39.2, 1534.85, 0.06544527, NaN, NaN, NaN, 0.0372337, "- N/A -   "
39.23, 1536.64, 0.06550358, NaN, NaN, NaN, 0.0335714, "- N/A -   "
39.26, 1537.95, 0.06556189, NaN, NaN, NaN, 0.03112983, "- N/A -   "
39.29, 1539.5, 0.06561743, NaN, NaN, NaN, 0.0286883, "- N/A -   "
39.32, 1540.81, 0.0656674, NaN, NaN, NaN, 0.0286883, "- N/A -   "
39.35, 1541.88, 0.06571183, NaN, NaN, NaN, 0.0299091, "- N/A -   "
39.38, 1543.19, 0.06575626, NaN, NaN, NaN, 0.0335714, "- N/A -   "
39.41, 1544.27, 0.06580069, NaN, NaN, NaN, 0.0347922, "- N/A -   "
39.44, 1545.58, 0.0658479, NaN, NaN, NaN, 0.03601294, "- N/A -   "
39.47, 1546.891, 0.06589788, NaN, NaN, NaN, 0.03601294, "- N/A -   "
39.5, 1548.44, 0.06595341, NaN, NaN, NaN, 0.0335714, "- N/A -   "
39.53, 1549.99, 0.06600617, NaN, NaN, NaN, 0.0323506, "- N/A -   "
39.56, 1551.3, 0.0660589, NaN, NaN, NaN, 0.03112983, "- N/A -   "
39.59, 1552.5, 0.06610613, NaN, NaN, NaN, 0.0323506, "- N/A -   "
39.62, 1553.81, 0.06615334, NaN, NaN, NaN, 0.0335714, "- N/A -   "
39.65, 1555, 0.06619777, NaN, NaN, NaN, 0.0372337, "- N/A -   "
39.68, 1556.19, 0.06624497, NaN, NaN, NaN, 0.0372337, "- N/A -   "
39.71, 1557.266, 0.0662894, NaN, NaN, NaN, 0.0396753, "- N/A -   "
39.74, 1558.58, 0.0663366, NaN, NaN, NaN, 0.04089605, "- N/A -   "
39.77, 1559.89, 0.06638936, NaN, NaN, NaN, 0.0396753, "- N/A -   "
39.8, 1561.2, 0.0664393, NaN, NaN, NaN, 0.0396753, "- N/A -   "
39.83, 1562.63, 0.0664893, NaN, NaN, NaN, 0.04089605, "- N/A -   "
39.86, 1563.82, 0.06653653, NaN, NaN, NaN, 0.04211683, "- N/A -   "
39.89, 1565.14, 0.06658651, NaN, NaN, NaN, 0.0433376, "- N/A -   "
39.92, 1566.69, 0.0666365, NaN, NaN, NaN, 0.04211683, "- N/A -   "
39.95, 1567.88, 0.06668925, NaN, NaN, NaN, 0.04211683, "- N/A -   "
39.98, 1569.31, 0.06674201, NaN, NaN, NaN, 0.0396753, "- N/A -   "
40.01, 1570.74, 0.06679755, NaN, NaN, NaN, 0.0384545, "- N/A -   "
40.04, 1572.17, 0.0668475, NaN, NaN, NaN, 0.0372337, "- N/A -   "
40.07, 1573.6, 0.06690028, NaN, NaN, NaN, 0.03601294, "- N/A -   "
40.1, 1575.03, 0.06695304, NaN, NaN, NaN, 0.03601294, "- N/A -   "
40.13, 1576.227, 0.0669975, NaN, NaN, NaN, 0.0372337, "- N/A -   "
40.16, 1577.54, 0.06705023, NaN, NaN, NaN, 0.03601294, "- N/A -   "
40.19, 1578.97, 0.06710299, NaN, NaN, NaN, 0.0347922, "- N/A -   "
40.22, 1580.28, 0.06715575, NaN, NaN, NaN, 0.0347922, "- N/A -   "
40.25, 1581.59, 0.06720295, NaN, NaN, NaN, 0.0347922, "- N/A -   "
40.28, 1582.91, 0.0672557, NaN, NaN, NaN, 0.0335714, "- N/A -   "
40.31, 1584.34, 0.06730846, NaN, NaN, NaN, 0.0335714, "- N/A -   "
40.34, 1585.77, 0.06735845, NaN, NaN, NaN, 0.0323506, "- N/A -   "
40.37, 1586.84, 0.06740288, NaN, NaN, NaN, 0.0347922, "- N/A -   "
40.4, 1587.91, 0.0674473, NaN, NaN, NaN, 0.0384545, "- N/A -   "
40.43, 1589.23, 0.06749451, NaN, NaN, NaN, 0.0396753, "- N/A -   "
40.46, 1590.42, 0.06753894, NaN, NaN, NaN, 0.04089605, "- N/A -   "
40.49, 1591.49, 0.06758337, NaN, NaN, NaN, 0.0433376, "- N/A -   "
40.52, 1592.68, 0.06763057, NaN, NaN, NaN, 0.0445584, "- N/A -   "
40.55, 1594, 0.06767777, NaN, NaN, NaN, 0.04577916, "- N/A -   "
40.58, 1595.55, 0.06773053, NaN, NaN, NaN, 0.0445584, "- N/A -   "
40.61, 1596.98, 0.06778607, NaN, NaN, NaN, 0.0433376, "- N/A -   "
40.64, 1598.65, 0.0678472, NaN, NaN, NaN, 0.0372337, "- N/A -   "
40.67, 1600.2, 0.06790547, NaN, NaN, NaN, 0.0335714, "- N/A -   "
40.7, 1601.747, 0.06795823, NaN, NaN, NaN, 0.0323506, "- N/A -   "
40.73, 1602.94, 0.06800821, NaN, NaN, NaN, 0.0323506, "- N/A -   "
40.76, 1604.132, 0.06805819, NaN, NaN, NaN, 0.0335714, "- N/A -   "
40.772, 1604.73, 0.06807763, NaN, NaN, NaN, 0.0323506, "- N/A -   "

File: Hamel_ForceTest_Bolt3_Test10.csv
Time, Load (lb), Position (in), AxialStrain (in), TransverseStrain (in), Auxiliary (), Control Out (V), Stress (psi)
0.0, 10.8512, 0.0, NaN, NaN, NaN, -0.007935055, "- N/A -   "
0.01, 10.8512, 0.0, NaN, NaN, NaN, -6.103888E-4, "- N/A -   "
0.02, 10.8512, 0.0, NaN, NaN, NaN, 0.0115974, "- N/A -   "
0.03, 10.8512, 0.0, NaN, NaN, NaN, 0.03112983, "- N/A -   "
0.04, 10.9691, 8.330256E-6, NaN, NaN, NaN, 0.04699994, "- N/A -   "
0.05, 11.205, 1.94373e-05, NaN, NaN, NaN, 0.06164927, "- N/A -   "
0.06, 11.5589, 3.60978e-05, NaN, NaN, NaN, 0.07385705, "- N/A -   "
0.07, 11.9127, 5.83118e-05, NaN, NaN, NaN, 0.084844, "- N/A -   "
0.08, 12.3845, 8.33026e-05, NaN, NaN, NaN, 0.09338949, "- N/A -   "
0.09, 12.8563, 0.00011107, NaN, NaN, NaN, 0.09949338, "- N/A -   "
0.1, 13.446, 0.000141614, NaN, NaN, NaN, 0.103156, "- N/A -   "
0.11, 13.9178, 0.000177712, NaN, NaN, NaN, 0.095831, "- N/A -   "
0.12, 14.3896, 0.000211033, NaN, NaN, NaN, 0.08850638, "- N/A -   "
0.13, 14.8614, 2.360239E-4, NaN, NaN, NaN, 0.08362327, "- N/A -   "
0.14, 15.2152, 0.000266568, NaN, NaN, NaN, 0.07874016, "- N/A -   "
0.15, 15.5691, 0.000288782, NaN, NaN, NaN, 0.0762986, "- N/A -   "
0.16, 15.9229, 0.000308219, NaN, NaN, NaN, 0.07385705, "- N/A -   "
0.17, 16.1588, 0.000330433, NaN, NaN, NaN, 0.07141549, "- N/A -   "
0.18, 16.5126, 0.000349871, NaN, NaN, NaN, 0.0701947, "- N/A -   "
0.19, 16.86649, 0.000372085, NaN, NaN, NaN, 0.0689739, "- N/A -   "
0.2, 17.1024, 0.000388745, NaN, NaN, NaN, 0.06775316, "- N/A -   "
0.21, 17.4562, 0.000410959, NaN, NaN, NaN, 0.06653238, "- N/A -   "
0.22, 17.6921, 4.276198E-4, NaN, NaN, NaN, 0.0653116, "- N/A -   "
0.23, 17.928, 0.000449834, NaN, NaN, NaN, 0.0640908, "- N/A -   "
0.24, 18.2819, 0.000469271, NaN, NaN, NaN, 0.06287005, "- N/A -   "
0.25, 18.5178, 0.000485932, NaN, NaN, NaN, 0.06164927, "- N/A -   "
0.26, 18.7536, 5.053688E-4, NaN, NaN, NaN, 0.0604285, "- N/A -   "
0.27, 19.1075, 5.248061E-4, NaN, NaN, NaN, 0.0592077, "- N/A -   "
0.28, 19.3434, 5.442434E-4, NaN, NaN, NaN, 0.0579869, "- N/A -   "
0.29, 19.57928, 5.636806E-4, NaN, NaN, NaN, 0.05676616, "- N/A -   "
0.3, 19.8152, 5.831179E-4, NaN, NaN, NaN, 0.0555454, "- N/A -   "
0.31, 20.169, 6.053319E-4, NaN, NaN, NaN, 0.0531038, "- N/A -   "
0.32, 20.6408, 0.000627546, NaN, NaN, NaN, 0.05066227, "- N/A -   "
0.33, 20.8767, 0.000646983, NaN, NaN, NaN, 0.0494415, "- N/A -   "
0.34, 21.1126, 0.00066642, NaN, NaN, NaN, 0.0482207, "- N/A -   "
0.35, 21.3485, 0.000688634, NaN, NaN, NaN, 0.04699994, "- N/A -   "
0.36, 21.5844, 0.000705295, NaN, NaN, NaN, 0.04577916, "- N/A -   "
0.37, 21.8203, 0.000724732, NaN, NaN, NaN, 0.04577916, "- N/A -   "
0.38, 22.1741, 0.000744169, NaN, NaN, NaN, 0.0445584, "- N/A -   "
0.39, 22.41, 7.6083E-4, NaN, NaN, NaN, 0.0433376, "- N/A -   "
0.4, 22.6459, 0.000780267, NaN, NaN, NaN, 0.04211683, "- N/A -   "
0.41, 22.9998, 7.997045E-4, NaN, NaN, NaN, 0.04211683, "- N/A -   "
0.42, 23.2357, 8.16365E-4, NaN, NaN, NaN, 0.04089605, "- N/A -   "
0.43, 23.4715, 8.358023E-4, NaN, NaN, NaN, 0.0396753, "- N/A -   "
0.44, 23.7074, 8.552396E-4, NaN, NaN, NaN, 0.0396753, "- N/A -   "
0.45, 23.9433, 0.0008719, NaN, NaN, NaN, 0.0384545, "- N/A -   "
0.46, 24.1792, 8.885606E-4, NaN, NaN, NaN, 0.0384545, "- N/A -   "
0.47, 24.4151, 0.000907998, NaN, NaN, NaN, 0.0384545, "- N/A -   "
0.48, 24.769, 9.246584E-4, NaN, NaN, NaN, 0.0384545, "- N/A -   "
0.49, 25.0049, 0.000941319, NaN, NaN, NaN, 0.0372337, "- N/A -   "
0.53, 26.0664, 0.00101629, NaN, NaN, NaN, 0.0335714, "- N/A -   "
0.57, 26.892, 0.00108571, NaN, NaN, NaN, 0.0323506, "- N/A -   "
0.61, 27.95355, 0.00115513, NaN, NaN, NaN, 0.03112983, "- N/A -   "
0.65, 28.89713, 0.001218994, NaN, NaN, NaN, 0.0323506, "- N/A -   "
0.69, 29.7228, 0.00128286, NaN, NaN, NaN, 0.0335714, "- N/A -   "
0.73, 30.6663, 0.00134395, NaN, NaN, NaN, 0.0372337, "- N/A -   "
0.77, 31.374, 0.00139671, NaN, NaN, NaN, 0.04211683, "- N/A -   "
0.81, 32.5535, 0.00146057, NaN, NaN, NaN, 0.0433376, "- N/A -   "
0.85, 33.61503, 0.00152721, NaN, NaN, NaN, 0.0445584, "- N/A -   "
0.89, 34.6766, 0.00159108, NaN, NaN, NaN, 0.0445584, "- N/A -   "
0.93, 35.97398, 0.00165772, NaN, NaN, NaN, 0.0445584, "- N/A -   "
0.97, 37.0355, 0.00172992, NaN, NaN, NaN, 0.0433376, "- N/A -   "
1.01, 38.5688, 0.00180767, NaN, NaN, NaN, 0.0384545, "- N/A -   "
1.05, 39.8662, 0.00187708, NaN, NaN, NaN, 0.03601294, "- N/A -   "
1.09, 41.2816, 0.00195483, NaN, NaN, NaN, 0.03112983, "- N/A -   "
1.13, 42.697, 0.00202981, NaN, NaN, NaN, 0.0274675, "- N/A -   "
1.17, 43.9944, 0.00209922, NaN, NaN, NaN, 0.0262467, "- N/A -   "
1.21, 44.93799, 0.00216309, NaN, NaN, NaN, 0.0286883, "- N/A -   "
1.25, 45.8816, 0.0022214, NaN, NaN, NaN, 0.0323506, "- N/A -   "
1.29, 47.061, 0.00228249, NaN, NaN, NaN, 0.0335714, "- N/A -   "
1.33, 48.2405, 0.00234636, NaN, NaN, NaN, 0.0347922, "- N/A -   "
1.37, 49.5379, 0.00241022, NaN, NaN, NaN, 0.03601294, "- N/A -   "
1.41, 50.7174, 0.00247964, NaN, NaN, NaN, 0.03601294, "- N/A -   "
1.45, 52.01483, 0.0025435, NaN, NaN, NaN, 0.0372337, "- N/A -   "
1.49, 52.9584, 0.00259904, NaN, NaN, NaN, 0.04211683, "- N/A -   "
1.53, 54.13789, 0.00266013, NaN, NaN, NaN, 0.0445584, "- N/A -   "
1.57, 55.3174, 0.00272399, NaN, NaN, NaN, 0.0445584, "- N/A -   "
1.61, 56.4968, 0.00279064, NaN, NaN, NaN, 0.0445584, "- N/A -   "
1.65, 57.79426, 0.00286283, NaN, NaN, NaN, 0.0433376, "- N/A -   "
1.69, 59.2096, 0.0029378, NaN, NaN, NaN, 0.0396753, "- N/A -   "
1.73, 60.625, 0.003012776, NaN, NaN, NaN, 0.03601294, "- N/A -   "
1.77, 62.0404, 0.00308219, NaN, NaN, NaN, 0.0335714, "- N/A -   "
1.81, 63.2198, 0.00315161, NaN, NaN, NaN, 0.0323506, "- N/A -   "
1.85, 64.5173, 0.00321548, NaN, NaN, NaN, 0.0335714, "- N/A -   "
1.89, 65.69674, 0.00327657, NaN, NaN, NaN, 0.03601294, "- N/A -   "
1.93, 66.87622, 0.00333766, NaN, NaN, NaN, 0.0384545, "- N/A -   "
1.97, 68.17364, 0.003409851, NaN, NaN, NaN, 0.0372337, "- N/A -   "
2.01, 69.8249, 0.00348205, NaN, NaN, NaN, 0.0335714, "- N/A -   "
2.05, 71.00438, 0.00355147, NaN, NaN, NaN, 0.0335714, "- N/A -   "
2.09, 72.1838, 0.003615331, NaN, NaN, NaN, 0.0335714, "- N/A -   "
2.13, 73.48127, 0.00367364, NaN, NaN, NaN, 0.0372337, "- N/A -   "
2.17, 74.42485, 0.00373195, NaN, NaN, NaN, 0.04089605, "- N/A -   "
2.21, 75.7223, 0.0037986, NaN, NaN, NaN, 0.04211683, "- N/A -   "
2.25, 77.37354, 0.00386802, NaN, NaN, NaN, 0.0396753, "- N/A -   "
2.29, 78.67096, 0.00393466, NaN, NaN, NaN, 0.0396753, "- N/A -   "
2.33, 80.0863, 0.004004076, NaN, NaN, NaN, 0.0384545, "- N/A -   "
2.37, 81.61965, 0.00408183, NaN, NaN, NaN, 0.0347922, "- N/A -   "
2.41, 83.15297, 0.004148467, NaN, NaN, NaN, 0.0335714, "- N/A -   "
2.45, 84.33244, 0.004215109, NaN, NaN, NaN, 0.0335714, "- N/A -   "
2.49, 85.51192, 0.00428175, NaN, NaN, NaN, 0.0347922, "- N/A -   "
2.53, 86.92729, 0.00435117, NaN, NaN, NaN, 0.0335714, "- N/A -   "
2.57, 88.34265, 0.00442059, NaN, NaN, NaN, 0.03112983, "- N/A -   "
2.61, 89.6401, 0.004484454, NaN, NaN, NaN, 0.0323506, "- N/A -   "
2.65, 90.81956, 0.004545543, NaN, NaN, NaN, 0.0347922, "- N/A -   "
2.69, 92.117, 0.004609408, NaN, NaN, NaN, 0.03601294, "- N/A -   "
2.73, 93.53234, 0.00467605, NaN, NaN, NaN, 0.03601294, "- N/A -   "
2.77, 94.9477, 0.00474825, NaN, NaN, NaN, 0.0335714, "- N/A -   "
2.81, 96.24514, 0.00481766, NaN, NaN, NaN, 0.0335714, "- N/A -   "
[...]
40.66, 1598.17, 0.06790269, NaN, NaN, NaN, 0.0323506, "- N/A -   "
40.73, 1601.15, 0.0680193, NaN, NaN, NaN, 0.0323506, "- N/A -   "
40.8, 1604.132, 0.06813594, NaN, NaN, NaN, 0.0335714, "- N/A -   "
40.87, 1607.47, 0.0682553, NaN, NaN, NaN, 0.0323506, "- N/A -   "
40.94, 1610.45, 0.06836919, NaN, NaN, NaN, 0.0323506, "- N/A -   "
41.01, 1613.43, 0.06848025, NaN, NaN, NaN, 0.0347922, "- N/A -   "
41.08, 1616.18, 0.068583, NaN, NaN, NaN, 0.04089605, "- N/A -   "
41.15, 1618.8, 0.06868851, NaN, NaN, NaN, 0.04577916, "- N/A -   "
41.22, 1622.02, 0.06880236, NaN, NaN, NaN, 0.04699994, "- N/A -   "
41.29, 1625.6, 0.06893564, NaN, NaN, NaN, 0.0396753, "- N/A -   "
41.36, 1629.06, 0.06906337, NaN, NaN, NaN, 0.0347922, "- N/A -   "
41.43, 1632.16, 0.06918555, NaN, NaN, NaN, 0.0323506, "- N/A -   "
41.5, 1635.5, 0.06930495, NaN, NaN, NaN, 0.03112983, "- N/A -   "
41.57, 1638.48, 0.0694216, NaN, NaN, NaN, 0.03112983, "- N/A -   "
41.64, 1641.34, 0.06952987, NaN, NaN, NaN, 0.0347922, "- N/A -   "
41.71, 1644.08, 0.0696326, NaN, NaN, NaN, 0.04089605, "- N/A -   "
41.78, 1646.82, 0.0697409, NaN, NaN, NaN, 0.0445584, "- N/A -   "
41.85, 1649.92, 0.0698603, NaN, NaN, NaN, 0.0445584, "- N/A -   "
41.92, 1653.383, 0.0699853, NaN, NaN, NaN, 0.04089605, "- N/A -   "
41.99, 1656.72, 0.07010743, NaN, NaN, NaN, 0.0372337, "- N/A -   "
42.06, 1660.42, 0.0702435, NaN, NaN, NaN, 0.0286883, "- N/A -   "
42.13, 1663.52, 0.0703629, NaN, NaN, NaN, 0.0286883, "- N/A -   "
42.2, 1666.26, 0.07047119, NaN, NaN, NaN, 0.03112983, "- N/A -   "
42.27, 1669.24, 0.07057948, NaN, NaN, NaN, 0.0347922, "- N/A -   "
42.34, 1672.22, 0.07069055, NaN, NaN, NaN, 0.0372337, "- N/A -   "
42.41, 1675.21, 0.0708044, NaN, NaN, NaN, 0.0384545, "- N/A -   "
42.48, 1677.949, 0.07090713, NaN, NaN, NaN, 0.0445584, "- N/A -   "
42.55, 1680.93, 0.07102098, NaN, NaN, NaN, 0.04577916, "- N/A -   "
42.62, 1684.51, 0.07115149, NaN, NaN, NaN, 0.0396753, "- N/A -   "
42.69, 1688.09, 0.07127922, NaN, NaN, NaN, 0.0347922, "- N/A -   "
42.76, 1691.31, 0.07140695, NaN, NaN, NaN, 0.0299091, "- N/A -   "
42.83, 1694.41, 0.07152357, NaN, NaN, NaN, 0.0299091, "- N/A -   "
42.9, 1697.39, 0.07163742, NaN, NaN, NaN, 0.03112983, "- N/A -   "
42.97, 1700.49, 0.07175127, NaN, NaN, NaN, 0.0323506, "- N/A -   "
43.04, 1703.23, 0.07185123, NaN, NaN, NaN, 0.0396753, "- N/A -   "
43.11, 1705.73, 0.07195397, NaN, NaN, NaN, 0.04577916, "- N/A -   "
43.18, 1708.84, 0.0720706, NaN, NaN, NaN, 0.04577916, "- N/A -   "
43.25, 1712.17, 0.07219277, NaN, NaN, NaN, 0.0433376, "- N/A -   "
43.32, 1715.87, 0.07233161, NaN, NaN, NaN, 0.0335714, "- N/A -   "
43.39, 1719.09, 0.07245101, NaN, NaN, NaN, 0.0323506, "- N/A -   "
43.46, 1722.07, 0.0725649, NaN, NaN, NaN, 0.0335714, "- N/A -   "
43.53, 1725.292, 0.07268426, NaN, NaN, NaN, 0.0323506, "- N/A -   "
43.6, 1728.51, 0.0728037, NaN, NaN, NaN, 0.0323506, "- N/A -   "
43.67, 1731.37, 0.07292028, NaN, NaN, NaN, 0.0323506, "- N/A -   "
43.74, 1734.36, 0.07303135, NaN, NaN, NaN, 0.0335714, "- N/A -   "
43.81, 1736.98, 0.0731369, NaN, NaN, NaN, 0.0384545, "- N/A -   "
43.88, 1739.6, 0.07323961, NaN, NaN, NaN, 0.0445584, "- N/A -   "
43.95, 1742.58, 0.0733507, NaN, NaN, NaN, 0.04699994, "- N/A -   "
44.02, 1745.8, 0.07347286, NaN, NaN, NaN, 0.0445584, "- N/A -   "
44.09, 1749.62, 0.07360891, NaN, NaN, NaN, 0.03601294, "- N/A -   "
44.16, 1752.96, 0.0737339, NaN, NaN, NaN, 0.0323506, "- N/A -   "
44.23, 1756.06, 0.07385049, NaN, NaN, NaN, 0.0323506, "- N/A -   "
44.3, 1759.4, 0.0739754, NaN, NaN, NaN, 0.0286883, "- N/A -   "
44.363, 1762.14, 0.07408096, NaN, NaN, NaN, 0.0299091, "- N/A -   "