Folder: DigitalTwins-Machine-Learning/2_Tensile_Data (part 24)

File: Hamel_ForceTest_Bolt7_Test2.csv
Time, Load (lb), Position (in), AxialStrain (in), TransverseStrain (in), Auxiliary (), Control Out (V), Stress (psi)
0.0, 1.06153, 0.0, NaN, NaN, NaN, 0.04699994, "- N/A -   "
0.01, 1.06153, 1.66605e-05, NaN, NaN, NaN, 0.04577916, "- N/A -   "
0.02, 1.06153, 3.3321e-05, NaN, NaN, NaN, 0.04577916, "- N/A -   "
0.03, 1.06153, 5.27583e-05, NaN, NaN, NaN, 0.04577916, "- N/A -   "
0.04, 1.17947, 6.94188E-5, NaN, NaN, NaN, 0.04577916, "- N/A -   "
0.05, 1.17947, 8.607931E-5, NaN, NaN, NaN, 0.04577916, "- N/A -   "
0.06, 1.17947, 9.99631e-05, NaN, NaN, NaN, 0.04577916, "- N/A -   "
0.07, 1.17947, 0.000116624, NaN, NaN, NaN, 0.04577916, "- N/A -   "
0.08, 1.29742, 0.000133284, NaN, NaN, NaN, 0.04699994, "- N/A -   "
0.09, 1.29742, 0.000147168, NaN, NaN, NaN, 0.04699994, "- N/A -   "
0.1, 1.29742, 0.000163828, NaN, NaN, NaN, 0.04699994, "- N/A -   "
0.11, 1.29742, 0.000180489, NaN, NaN, NaN, 0.04699994, "- N/A -   "
0.12, 1.41537, 0.000197149, NaN, NaN, NaN, 0.04699994, "- N/A -   "
0.13, 1.41537, 0.000216587, NaN, NaN, NaN, 0.04577916, "- N/A -   "
0.14, 1.41537, 0.000233247, NaN, NaN, NaN, 0.04577916, "- N/A -   "
0.15, 1.53332, 2.526844E-4, NaN, NaN, NaN, 0.04577916, "- N/A -   "
0.16, 1.53332, 2.721217E-4, NaN, NaN, NaN, 0.0445584, "- N/A -   "
0.17, 1.53332, 0.000291559, NaN, NaN, NaN, 0.04211683, "- N/A -   "
0.18, 1.53332, 3.109962E-4, NaN, NaN, NaN, 0.04089605, "- N/A -   "
0.19, 1.65126, 0.00033321, NaN, NaN, NaN, 0.0384545, "- N/A -   "
0.2, 1.65126, 0.000352647, NaN, NaN, NaN, 0.0372337, "- N/A -   "
0.21, 1.65126, 3.748615E-4, NaN, NaN, NaN, 0.0347922, "- N/A -   "
0.22, 1.76921, 0.000397076, NaN, NaN, NaN, 0.0323506, "- N/A -   "
0.23, 1.76921, 0.000416513, NaN, NaN, NaN, 0.03112983, "- N/A -   "
0.24, 1.76921, 4.387268E-4, NaN, NaN, NaN, 0.0286883, "- N/A -   "
0.25, 1.88716, 0.000458164, NaN, NaN, NaN, 0.0286883, "- N/A -   "
0.26, 1.88716, 0.000474825, NaN, NaN, NaN, 0.0274675, "- N/A -   "
0.27, 1.88716, 0.000491485, NaN, NaN, NaN, 0.0274675, "- N/A -   "
0.28, 2.005107, 5.081456E-4, NaN, NaN, NaN, 0.0274675, "- N/A -   "
0.29, 1.88716, 0.000522029, NaN, NaN, NaN, 0.0286883, "- N/A -   "
0.3, 2.005107, 5.359131E-4, NaN, NaN, NaN, 0.0299091, "- N/A -   "
0.31, 2.005107, 5.525736E-4, NaN, NaN, NaN, 0.0299091, "- N/A -   "
0.32, 2.005107, 0.000569234, NaN, NaN, NaN, 0.0299091, "- N/A -   "
0.33, 2.12305, 5.858946E-4, NaN, NaN, NaN, 0.0299091, "- N/A -   "
0.34, 2.12305, 0.000602555, NaN, NaN, NaN, 0.0299091, "- N/A -   "
0.35, 2.12305, 0.000619216, NaN, NaN, NaN, 0.03112983, "- N/A -   "
0.36, 2.12305, 0.000635876, NaN, NaN, NaN, 0.03112983, "- N/A -   "
0.37, 2.241, 6.497599E-4, NaN, NaN, NaN, 0.03112983, "- N/A -   "
0.38, 2.12305, 0.00066642, NaN, NaN, NaN, 0.03112983, "- N/A -   "
0.39, 2.241, 6.803042E-4, NaN, NaN, NaN, 0.0323506, "- N/A -   "
0.4, 2.241, 0.000694188, NaN, NaN, NaN, 0.0335714, "- N/A -   "
0.41, 2.241, 7.108485E-4, NaN, NaN, NaN, 0.0335714, "- N/A -   "
0.42, 2.241, 7.27509E-4, NaN, NaN, NaN, 0.0347922, "- N/A -   "
0.43, 2.241, 7.413927E-4, NaN, NaN, NaN, 0.0347922, "- N/A -   "
0.44, 2.35895, 0.000758053, NaN, NaN, NaN, 0.0347922, "- N/A -   "
0.47, 2.35895, 8.080348E-4, NaN, NaN, NaN, 0.0347922, "- N/A -   "
0.5, 2.476897, 0.000860793, NaN, NaN, NaN, 0.0335714, "- N/A -   "
0.53, 2.59484, 9.107746E-4, NaN, NaN, NaN, 0.0335714, "- N/A -   "
0.56, 2.476897, 9.552026E-4, NaN, NaN, NaN, 0.03601294, "- N/A -   "
0.59, 2.712792, 9.996307E-4, NaN, NaN, NaN, 0.0384545, "- N/A -   "
0.62, 2.712792, 0.00104684, NaN, NaN, NaN, 0.04089605, "- N/A -   "
0.65, 2.712792, 0.00109126, NaN, NaN, NaN, 0.0433376, "- N/A -   "
0.68, 2.83074, 0.00113569, NaN, NaN, NaN, 0.04577916, "- N/A -   "
0.71, 2.59484, 0.00118012, NaN, NaN, NaN, 0.04699994, "- N/A -   "
0.74, 2.94869, 0.00123288, NaN, NaN, NaN, 0.04577916, "- N/A -   "
0.77, 2.94869, 0.00128841, NaN, NaN, NaN, 0.0433376, "- N/A -   "
0.8, 3.06663, 0.00134672, NaN, NaN, NaN, 0.0396753, "- N/A -   "
0.83, 3.18458, 0.00140781, NaN, NaN, NaN, 0.0347922, "- N/A -   "
0.86, 3.42048, 0.00146612, NaN, NaN, NaN, 0.0323506, "- N/A -   "
0.89, 3.42048, 0.00152166, NaN, NaN, NaN, 0.0286883, "- N/A -   "
0.92, 3.53842, 0.00157442, NaN, NaN, NaN, 0.0274675, "- N/A -   "
0.95, 3.65637, 0.001621623, NaN, NaN, NaN, 0.0286883, "- N/A -   "
0.98, 3.774319, 0.00166883, NaN, NaN, NaN, 0.03112983, "- N/A -   "
1.01, 3.89227, 0.00171326, NaN, NaN, NaN, 0.0323506, "- N/A -   "
1.04, 4.12816, 0.00175768, NaN, NaN, NaN, 0.0347922, "- N/A -   "
1.07, 4.246109, 0.00180767, NaN, NaN, NaN, 0.0347922, "- N/A -   "
1.1, 4.246109, 0.00186042, NaN, NaN, NaN, 0.0335714, "- N/A -   "
1.13, 4.59995, 0.001913182, NaN, NaN, NaN, 0.0335714, "- N/A -   "
1.16, 4.717899, 0.00196316, NaN, NaN, NaN, 0.0323506, "- N/A -   "
1.19, 4.717899, 0.00201037, NaN, NaN, NaN, 0.0335714, "- N/A -   "
1.22, 4.83585, 0.002057573, NaN, NaN, NaN, 0.03601294, "- N/A -   "
1.25, 5.071741, 0.002102001, NaN, NaN, NaN, 0.0384545, "- N/A -   "
1.28, 5.18969, 0.00214643, NaN, NaN, NaN, 0.0396753, "- N/A -   "
1.31, 5.18969, 0.00219363, NaN, NaN, NaN, 0.04089605, "- N/A -   "
1.34, 5.425584, 0.00224362, NaN, NaN, NaN, 0.04211683, "- N/A -   "
1.37, 5.66148, 0.0022936, NaN, NaN, NaN, 0.04089605, "- N/A -   "
1.4, 5.66148, 0.00234913, NaN, NaN, NaN, 0.0396753, "- N/A -   "
1.43, 5.897373, 0.00239911, NaN, NaN, NaN, 0.0396753, "- N/A -   "
1.46, 6.01532, 0.00245187, NaN, NaN, NaN, 0.0384545, "- N/A -   "
1.49, 6.13327, 0.00249908, NaN, NaN, NaN, 0.0384545, "- N/A -   "
1.52, 6.369163, 0.00254906, NaN, NaN, NaN, 0.0384545, "- N/A -   "
1.55, 6.487111, 0.00260459, NaN, NaN, NaN, 0.0372337, "- N/A -   "
1.58, 6.60506, 0.00265457, NaN, NaN, NaN, 0.0372337, "- N/A -   "
1.61, 6.723006, 0.00270733, NaN, NaN, NaN, 0.0347922, "- N/A -   "
1.64, 6.84095, 0.00276009, NaN, NaN, NaN, 0.0335714, "- N/A -   "
1.67, 7.07685, 0.00281007, NaN, NaN, NaN, 0.0335714, "- N/A -   "
1.7, 7.1948, 0.00286005, NaN, NaN, NaN, 0.0335714, "- N/A -   "
1.73, 7.430691, 0.00291281, NaN, NaN, NaN, 0.0335714, "- N/A -   "
1.76, 7.548638, 0.00296279, NaN, NaN, NaN, 0.0323506, "- N/A -   "
1.79, 7.666586, 0.003012776, NaN, NaN, NaN, 0.0335714, "- N/A -   "
1.82, 7.90248, 0.00306276, NaN, NaN, NaN, 0.0323506, "- N/A -   "
1.85, 8.020428, 0.003112739, NaN, NaN, NaN, 0.0335714, "- N/A -   "
1.88, 8.138375, 0.00315994, NaN, NaN, NaN, 0.0335714, "- N/A -   "
1.91, 8.256323, 0.003212702, NaN, NaN, NaN, 0.0323506, "- N/A -   "
1.94, 8.37427, 0.00326268, NaN, NaN, NaN, 0.0323506, "- N/A -   "
1.97, 8.610166, 0.003309888, NaN, NaN, NaN, 0.0347922, "- N/A -   "
2, 8.610166, 0.00335154, NaN, NaN, NaN, 0.0372337, "- N/A -   "
2.03, 8.846061, 0.00339874, NaN, NaN, NaN, 0.0384545, "- N/A -   "
2.06, 8.964007, 0.00344595, NaN, NaN, NaN, 0.0396753, "- N/A -   "
2.09, 9.081955, 0.00349038, NaN, NaN, NaN, 0.04211683, "- N/A -   "
2.12, 9.199903, 0.003537582, NaN, NaN, NaN, 0.0433376, "- N/A -   "
2.15, 9.435798, 0.00358756, NaN, NaN, NaN, 0.0433376, "- N/A -   "
2.18, 9.671693, 0.00364032, NaN, NaN, NaN, 0.04211683, "- N/A -   "
2.21, 9.907588, 0.00369308, NaN, NaN, NaN, 0.04089605, "- N/A -   "
2.24, 10.1435, 0.00375139, NaN, NaN, NaN, 0.0384545, "- N/A -   "
2.27, 10.3794, 0.0038097, NaN, NaN, NaN, 0.0347922, "- N/A -   "
2.3, 10.73322, 0.00386246, NaN, NaN, NaN, 0.0323506, "- N/A -   "
[...]
24.08, 742.61, 0.04016016, NaN, NaN, NaN, 0.0335714, "- N/A -   "
24.15, 746.2767, 0.0402934, NaN, NaN, NaN, 0.0274675, "- N/A -   "
24.22, 749.1154, 0.0404045, NaN, NaN, NaN, 0.0286883, "- N/A -   "
24.29, 752.072, 0.0405156, NaN, NaN, NaN, 0.0323506, "- N/A -   "
24.36, 755.0295, 0.0406267, NaN, NaN, NaN, 0.0347922, "- N/A -   "
24.43, 758.1048, 0.0407405, NaN, NaN, NaN, 0.03601294, "- N/A -   "
24.5, 760.707, 0.040846, NaN, NaN, NaN, 0.0396753, "- N/A -   "
24.57, 763.5457, 0.04095431, NaN, NaN, NaN, 0.0433376, "- N/A -   "
24.64, 766.739, 0.04106816, NaN, NaN, NaN, 0.0445584, "- N/A -   "
24.71, 770.5243, 0.0412042, NaN, NaN, NaN, 0.03601294, "- N/A -   "
24.78, 774.0727, 0.0413347, NaN, NaN, NaN, 0.0299091, "- N/A -   "
24.85, 776.675, 0.0414375, NaN, NaN, NaN, 0.0372337, "- N/A -   "
24.92, 779.7502, 0.0415541, NaN, NaN, NaN, 0.0372337, "- N/A -   "
24.99, 783.1803, 0.041679, NaN, NaN, NaN, 0.0323506, "- N/A -   "
25.06, 786.3739, 0.0417984, NaN, NaN, NaN, 0.03112983, "- N/A -   "
25.13, 789.213, 0.04190396, NaN, NaN, NaN, 0.03601294, "- N/A -   "
25.2, 791.6966, 0.0420039, NaN, NaN, NaN, 0.0433376, "- N/A -   "
25.27, 795.245, 0.04213443, NaN, NaN, NaN, 0.0372337, "- N/A -   "
25.34, 798.439, 0.0422511, NaN, NaN, NaN, 0.0372337, "- N/A -   "
25.41, 801.6321, 0.0423705, NaN, NaN, NaN, 0.03601294, "- N/A -   "
25.48, 804.707, 0.0424899, NaN, NaN, NaN, 0.0347922, "- N/A -   "
25.55, 808.1376, 0.04261481, NaN, NaN, NaN, 0.03112983, "- N/A -   "
25.62, 811.3312, 0.042737, NaN, NaN, NaN, 0.0299091, "- N/A -   "
25.69, 814.643, 0.04285361, NaN, NaN, NaN, 0.0286883, "- N/A -   "
25.76, 817.3635, 0.0429619, NaN, NaN, NaN, 0.0323506, "- N/A -   "
25.83, 820.4388, 0.043073, NaN, NaN, NaN, 0.0347922, "- N/A -   "
25.9, 822.9227, 0.0431757, NaN, NaN, NaN, 0.0433376, "- N/A -   "
25.97, 825.998, 0.04328678, NaN, NaN, NaN, 0.0445584, "- N/A -   "
26.04, 828.955, 0.0433951, NaN, NaN, NaN, 0.0482207, "- N/A -   "
26.11, 832.6217, 0.04352836, NaN, NaN, NaN, 0.04089605, "- N/A -   "
26.18, 836.407, 0.0436644, NaN, NaN, NaN, 0.0323506, "- N/A -   "
26.25, 839.3637, 0.0437755, NaN, NaN, NaN, 0.0347922, "- N/A -   "
26.32, 842.6756, 0.0438949, NaN, NaN, NaN, 0.0335714, "- N/A -   "
26.39, 845.9874, 0.0440254, NaN, NaN, NaN, 0.0274675, "- N/A -   "
26.46, 848.9445, 0.04413647, NaN, NaN, NaN, 0.03112983, "- N/A -   "
26.53, 851.4284, 0.0442337, NaN, NaN, NaN, 0.0384545, "- N/A -   "
26.6, 854.0306, 0.04433084, NaN, NaN, NaN, 0.04699994, "- N/A -   "
26.67, 857.2241, 0.0444502, NaN, NaN, NaN, 0.04577916, "- N/A -   "
26.74, 860.7725, 0.04457797, NaN, NaN, NaN, 0.04089605, "- N/A -   "
26.81, 864.2027, 0.0447057, NaN, NaN, NaN, 0.0372337, "- N/A -   "
26.88, 867.751, 0.0448307, NaN, NaN, NaN, 0.0323506, "- N/A -   "
26.95, 871.1813, 0.0449584, NaN, NaN, NaN, 0.0274675, "- N/A -   "
27.02, 874.257, 0.04507501, NaN, NaN, NaN, 0.0274675, "- N/A -   "
27.09, 877.0953, 0.0451833, NaN, NaN, NaN, 0.03112983, "- N/A -   "
27.16, 879.9341, 0.04528882, NaN, NaN, NaN, 0.03601294, "- N/A -   "
27.23, 882.536, 0.0453916, NaN, NaN, NaN, 0.0433376, "- N/A -   "
27.3, 885.375, 0.04549708, NaN, NaN, NaN, 0.04699994, "- N/A -   "
27.37, 888.6868, 0.0456193, NaN, NaN, NaN, 0.04577916, "- N/A -   "
27.44, 892.117, 0.0457387, NaN, NaN, NaN, 0.0433376, "- N/A -   "
27.51, 895.902, 0.0458747, NaN, NaN, NaN, 0.0347922, "- N/A -   "
27.58, 899.3321, 0.0460024, NaN, NaN, NaN, 0.0299091, "- N/A -   "
27.65, 902.2891, 0.0461163, NaN, NaN, NaN, 0.03112983, "- N/A -   "
27.72, 905.483, 0.0462274, NaN, NaN, NaN, 0.0335714, "- N/A -   "
27.732, 906.074, 0.0462468, NaN, NaN, NaN, 0.0347922, "- N/A -   "

File: Hamel_ForceTest_Bolt7_Test3.csv
Time, Load (lb), Position (in), AxialStrain (in), TransverseStrain (in), Auxiliary (), Control Out (V), Stress (psi)
0.0, 1.06153, 0.0, NaN, NaN, NaN, 0.106818, "- N/A -   "
0.01, 1.41537, 3.054427E-5, NaN, NaN, NaN, 0.104376, "- N/A -   "
0.02, 1.76921, 6.386529E-5, NaN, NaN, NaN, 0.09705182, "- N/A -   "
0.03, 2.241, 9.440956E-5, NaN, NaN, NaN, 0.09094793, "- N/A -   "
0.04, 2.712792, 0.0001194, NaN, NaN, NaN, 0.0872856, "- N/A -   "
0.05, 3.06663, 0.000147168, NaN, NaN, NaN, 0.08240249, "- N/A -   "
0.06, 3.42048, 0.000172159, NaN, NaN, NaN, 0.07874016, "- N/A -   "
0.07, 3.89227, 0.000199926, NaN, NaN, NaN, 0.07385705, "- N/A -   "
0.08, 4.36406, 0.000224917, NaN, NaN, NaN, 0.0701947, "- N/A -   "
0.09, 4.717899, 0.000249908, NaN, NaN, NaN, 0.06653238, "- N/A -   "
0.1, 5.071741, 0.000274898, NaN, NaN, NaN, 0.06287005, "- N/A -   "
0.11, 5.66148, 2.998892E-4, NaN, NaN, NaN, 0.0592077, "- N/A -   "
0.12, 5.779426, 0.00032488, NaN, NaN, NaN, 0.0555454, "- N/A -   "
0.13, 6.251216, 0.000347094, NaN, NaN, NaN, 0.0531038, "- N/A -   "
0.14, 6.60506, 3.69308E-4, NaN, NaN, NaN, 0.05188305, "- N/A -   "
0.15, 6.9589, 0.000391522, NaN, NaN, NaN, 0.0494415, "- N/A -   "
0.16, 7.312743, 0.000410959, NaN, NaN, NaN, 0.04699994, "- N/A -   "
0.17, 7.784533, 4.331733E-4, NaN, NaN, NaN, 0.0445584, "- N/A -   "
0.18, 8.138375, 0.000452611, NaN, NaN, NaN, 0.0433376, "- N/A -   "
0.19, 8.492218, 4.720478E-4, NaN, NaN, NaN, 0.04211683, "- N/A -   "
0.2, 8.846061, 4.942618E-4, NaN, NaN, NaN, 0.0396753, "- N/A -   "
0.21, 9.199903, 5.164758E-4, NaN, NaN, NaN, 0.0372337, "- N/A -   "
0.22, 9.553744, 0.00053869, NaN, NaN, NaN, 0.0347922, "- N/A -   "
0.23, 9.907588, 5.581271E-4, NaN, NaN, NaN, 0.0335714, "- N/A -   "
0.24, 10.3794, 0.000577564, NaN, NaN, NaN, 0.0323506, "- N/A -   "
0.25, 10.73322, 0.000597002, NaN, NaN, NaN, 0.0323506, "- N/A -   "
0.26, 11.0871, 6.136621E-4, NaN, NaN, NaN, 0.03112983, "- N/A -   "
0.27, 11.323, 6.330994E-4, NaN, NaN, NaN, 0.0299091, "- N/A -   "
0.28, 11.6768, 0.000646983, NaN, NaN, NaN, 0.03112983, "- N/A -   "
0.29, 12.0306, 6.636437E-4, NaN, NaN, NaN, 0.03112983, "- N/A -   "
0.3, 12.2665, 6.830809E-4, NaN, NaN, NaN, 0.0299091, "- N/A -   "
0.31, 12.6204, 6.997415E-4, NaN, NaN, NaN, 0.0299091, "- N/A -   "
0.32, 12.9742, 0.000716402, NaN, NaN, NaN, 0.0299091, "- N/A -   "
0.33, 13.2101, 7.302857E-4, NaN, NaN, NaN, 0.03112983, "- N/A -   "
0.34, 13.564, 0.000746946, NaN, NaN, NaN, 0.03112983, "- N/A -   "
0.35, 13.9178, 0.000763607, NaN, NaN, NaN, 0.03112983, "- N/A -   "
0.36, 14.0357, 0.000780267, NaN, NaN, NaN, 0.03112983, "- N/A -   "
0.37, 14.3896, 0.000794151, NaN, NaN, NaN, 0.0323506, "- N/A -   "
0.38, 14.7434, 8.080348E-4, NaN, NaN, NaN, 0.0335714, "- N/A -   "
0.39, 14.9793, 8.246953E-4, NaN, NaN, NaN, 0.0335714, "- N/A -   "
0.4, 15.3332, 8.38579E-4, NaN, NaN, NaN, 0.0347922, "- N/A -   "
0.41, 15.5691, 8.552396E-4, NaN, NaN, NaN, 0.03601294, "- N/A -   "
0.47, 17.2203, 0.000941319, NaN, NaN, NaN, 0.04211683, "- N/A -   "
0.53, 18.9895, 0.0010274, NaN, NaN, NaN, 0.04699994, "- N/A -   "
0.59, 21.1126, 0.001130138, NaN, NaN, NaN, 0.04577916, "- N/A -   "
0.65, 23.1177, 0.00122732, NaN, NaN, NaN, 0.04699994, "- N/A -   "
0.71, 25.4767, 0.00133284, NaN, NaN, NaN, 0.0445584, "- N/A -   "
0.77, 27.95355, 0.00145224, NaN, NaN, NaN, 0.03601294, "- N/A -   "
0.83, 30.5484, 0.00156609, NaN, NaN, NaN, 0.0299091, "- N/A -   "
0.89, 32.9073, 0.0016716, NaN, NaN, NaN, 0.0274675, "- N/A -   "
0.95, 35.0304, 0.00176324, NaN, NaN, NaN, 0.03112983, "- N/A -   "
1.01, 37.0355, 0.001857647, NaN, NaN, NaN, 0.0335714, "- N/A -   "
1.07, 39.2765, 0.00195206, NaN, NaN, NaN, 0.03601294, "- N/A -   "
1.13, 41.6355, 0.00205202, NaN, NaN, NaN, 0.03601294, "- N/A -   "
1.19, 43.75851, 0.00214088, NaN, NaN, NaN, 0.04211683, "- N/A -   "
1.25, 45.9995, 0.00223251, NaN, NaN, NaN, 0.0445584, "- N/A -   "
1.31, 48.2405, 0.00233247, NaN, NaN, NaN, 0.0445584, "- N/A -   "
1.37, 50.9533, 0.0024491, NaN, NaN, NaN, 0.0384545, "- N/A -   "
1.43, 53.6661, 0.00255739, NaN, NaN, NaN, 0.0335714, "- N/A -   "
1.49, 56.143, 0.0026629, NaN, NaN, NaN, 0.03112983, "- N/A -   "
1.55, 58.384, 0.00275731, NaN, NaN, NaN, 0.0335714, "- N/A -   "
1.61, 60.8609, 0.002854501, NaN, NaN, NaN, 0.0347922, "- N/A -   "
1.67, 63.1019, 0.002954464, NaN, NaN, NaN, 0.0347922, "- N/A -   "
1.73, 65.5788, 0.003057204, NaN, NaN, NaN, 0.0335714, "- N/A -   "
1.79, 67.70185, 0.00314884, NaN, NaN, NaN, 0.0372337, "- N/A -   "
1.85, 69.94285, 0.00324047, NaN, NaN, NaN, 0.04089605, "- N/A -   "
1.91, 72.41975, 0.00333488, NaN, NaN, NaN, 0.0433376, "- N/A -   "
1.97, 75.0146, 0.00344317, NaN, NaN, NaN, 0.0396753, "- N/A -   "
2.03, 77.6094, 0.00354036, NaN, NaN, NaN, 0.04089605, "- N/A -   "
2.09, 80.32223, 0.00364865, NaN, NaN, NaN, 0.0372337, "- N/A -   "
2.15, 82.91707, 0.00375139, NaN, NaN, NaN, 0.03601294, "- N/A -   "
2.21, 85.51192, 0.00385135, NaN, NaN, NaN, 0.03601294, "- N/A -   "
2.27, 88.34265, 0.00395687, NaN, NaN, NaN, 0.0335714, "- N/A -   "
2.33, 90.81956, 0.00405683, NaN, NaN, NaN, 0.0335714, "- N/A -   "
2.39, 93.41439, 0.00415957, NaN, NaN, NaN, 0.0323506, "- N/A -   "
2.45, 96.00924, 0.00426231, NaN, NaN, NaN, 0.03112983, "- N/A -   "
2.51, 98.60408, 0.004365054, NaN, NaN, NaN, 0.0299091, "- N/A -   "
2.57, 100.6092, 0.004442803, NaN, NaN, NaN, 0.0396753, "- N/A -   "
2.63, 103.204, 0.00453721, NaN, NaN, NaN, 0.04211683, "- N/A -   "
2.69, 105.681, 0.004634399, NaN, NaN, NaN, 0.0445584, "- N/A -   "
2.75, 108.512, 0.00473714, NaN, NaN, NaN, 0.04211683, "- N/A -   "
2.81, 111.46, 0.004845432, NaN, NaN, NaN, 0.0384545, "- N/A -   "
2.87, 114.2911, 0.004956502, NaN, NaN, NaN, 0.0335714, "- N/A -   "
2.93, 117.122, 0.00505924, NaN, NaN, NaN, 0.0323506, "- N/A -   "
2.99, 119.599, 0.005156428, NaN, NaN, NaN, 0.0335714, "- N/A -   "
3.05, 122.429, 0.0052675, NaN, NaN, NaN, 0.0299091, "- N/A -   "
3.11, 125.26, 0.00536746, NaN, NaN, NaN, 0.0286883, "- N/A -   "
3.17, 127.619, 0.005459094, NaN, NaN, NaN, 0.0323506, "- N/A -   "
3.23, 129.742, 0.00554517, NaN, NaN, NaN, 0.0384545, "- N/A -   "
3.29, 132.101, 0.00563125, NaN, NaN, NaN, 0.0445584, "- N/A -   "
3.35, 134.578, 0.005728439, NaN, NaN, NaN, 0.04699994, "- N/A -   "
3.41, 137.6447, 0.005836732, NaN, NaN, NaN, 0.04211683, "- N/A -   "
3.47, 140.475, 0.00594225, NaN, NaN, NaN, 0.0396753, "- N/A -   "
3.53, 143.542, 0.00605332, NaN, NaN, NaN, 0.03601294, "- N/A -   "
3.59, 146.137, 0.00615328, NaN, NaN, NaN, 0.03601294, "- N/A -   "
3.65, 148.968, 0.0062588, NaN, NaN, NaN, 0.0335714, "- N/A -   "
3.71, 151.916, 0.006367092, NaN, NaN, NaN, 0.0299091, "- N/A -   "
3.77, 154.511, 0.006467055, NaN, NaN, NaN, 0.0299091, "- N/A -   "
3.83, 156.87, 0.00655313, NaN, NaN, NaN, 0.03601294, "- N/A -   "
3.89, 159.111, 0.00664199, NaN, NaN, NaN, 0.04089605, "- N/A -   "
3.95, 161.588, 0.00673362, NaN, NaN, NaN, 0.0445584, "- N/A -   "
4.01, 164.183, 0.00683081, NaN, NaN, NaN, 0.04577916, "- N/A -   "
4.07, 166.896, 0.00693355, NaN, NaN, NaN, 0.0445584, "- N/A -   "
4.13, 169.726, 0.00703907, NaN, NaN, NaN, 0.04211683, "- N/A -   "
4.19, 172.6751, 0.007150136, NaN, NaN, NaN, 0.0372337, "- N/A -   "
4.25, 175.86, 0.00726398, NaN, NaN, NaN, 0.03112983, "- N/A -   "
4.31, 178.455, 0.007366723, NaN, NaN, NaN, 0.0299091, "- N/A -   "
[...]
22.41, 941.7949, 0.03750559, NaN, NaN, NaN, 0.0433376, "- N/A -   "
22.56, 948.8918, 0.0377638, NaN, NaN, NaN, 0.0384545, "- N/A -   "
22.71, 955.634, 0.03801929, NaN, NaN, NaN, 0.03601294, "- N/A -   "
22.86, 962.3758, 0.0382747, NaN, NaN, NaN, 0.0335714, "- N/A -   "
23.01, 968.8813, 0.0385191, NaN, NaN, NaN, 0.03601294, "- N/A -   "
23.16, 974.9136, 0.03874957, NaN, NaN, NaN, 0.0445584, "- N/A -   "
23.31, 982.3653, 0.0390272, NaN, NaN, NaN, 0.0335714, "- N/A -   "
23.46, 988.871, 0.0392744, NaN, NaN, NaN, 0.0335714, "- N/A -   "
23.61, 995.731, 0.0395354, NaN, NaN, NaN, 0.0286883, "- N/A -   "
23.76, 1001.05, 0.0397436, NaN, NaN, NaN, 0.04699994, "- N/A -   "
23.91, 1008.15, 0.0400074, NaN, NaN, NaN, 0.04089605, "- N/A -   "
24.06, 1015.15, 0.0402712, NaN, NaN, NaN, 0.0347922, "- N/A -   "
24.21, 1022.18, 0.0405322, NaN, NaN, NaN, 0.0299091, "- N/A -   "
24.36, 1027.91, 0.04075716, NaN, NaN, NaN, 0.04211683, "- N/A -   "
24.51, 1034.47, 0.0410043, NaN, NaN, NaN, 0.04211683, "- N/A -   "
24.66, 1041.859, 0.0412792, NaN, NaN, NaN, 0.0323506, "- N/A -   "
24.81, 1048.78, 0.0415347, NaN, NaN, NaN, 0.0286883, "- N/A -   "
24.96, 1054.86, 0.0417679, NaN, NaN, NaN, 0.0372337, "- N/A -   "
25.11, 1061.18, 0.0420011, NaN, NaN, NaN, 0.0433376, "- N/A -   "
25.26, 1068.21, 0.0422622, NaN, NaN, NaN, 0.0384545, "- N/A -   "
25.41, 1075.13, 0.0425232, NaN, NaN, NaN, 0.0335714, "- N/A -   "
25.56, 1081.69, 0.0427703, NaN, NaN, NaN, 0.0347922, "- N/A -   "
25.71, 1088.13, 0.04301466, NaN, NaN, NaN, 0.0372337, "- N/A -   "
25.86, 1094.69, 0.04326179, NaN, NaN, NaN, 0.0396753, "- N/A -   "
26.01, 1101.485, 0.0435173, NaN, NaN, NaN, 0.03601294, "- N/A -   "
26.16, 1108.64, 0.043781, NaN, NaN, NaN, 0.03112983, "- N/A -   "
26.31, 1114.96, 0.0440226, NaN, NaN, NaN, 0.0347922, "- N/A -   "
26.46, 1121.4, 0.0442586, NaN, NaN, NaN, 0.04089605, "- N/A -   "
26.61, 1127.72, 0.0445002, NaN, NaN, NaN, 0.0445584, "- N/A -   "
26.76, 1134.99, 0.04477234, NaN, NaN, NaN, 0.0347922, "- N/A -   "
26.91, 1141.91, 0.0450278, NaN, NaN, NaN, 0.0323506, "- N/A -   "
27.06, 1148.47, 0.0452749, NaN, NaN, NaN, 0.0335714, "- N/A -   "
27.21, 1153.96, 0.0454887, NaN, NaN, NaN, 0.0494415, "- N/A -   "
27.36, 1161.35, 0.04575809, NaN, NaN, NaN, 0.04089605, "- N/A -   "
27.51, 1169.1, 0.0460469, NaN, NaN, NaN, 0.0238052, "- N/A -   "
27.66, 1175.06, 0.0462773, NaN, NaN, NaN, 0.0323506, "- N/A -   "
27.81, 1181.03, 0.0465023, NaN, NaN, NaN, 0.0433376, "- N/A -   "
27.96, 1187.47, 0.0467466, NaN, NaN, NaN, 0.04577916, "- N/A -   "
28.11, 1195.34, 0.04703262, NaN, NaN, NaN, 0.0299091, "- N/A -   "
28.26, 1201.66, 0.0472742, NaN, NaN, NaN, 0.0335714, "- N/A -   "
28.41, 1208.22, 0.0475158, NaN, NaN, NaN, 0.0372337, "- N/A -   "
28.56, 1214.3, 0.047749, NaN, NaN, NaN, 0.0445584, "- N/A -   "
28.71, 1221.81, 0.04802392, NaN, NaN, NaN, 0.0335714, "- N/A -   "
28.86, 1228.49, 0.0482766, NaN, NaN, NaN, 0.0323506, "- N/A -   "
29.01, 1235.29, 0.0485265, NaN, NaN, NaN, 0.0323506, "- N/A -   "
29.16, 1241.37, 0.048757, NaN, NaN, NaN, 0.04089605, "- N/A -   "
29.31, 1247.93, 0.0490041, NaN, NaN, NaN, 0.04211683, "- N/A -   "
29.46, 1255.08, 0.0492679, NaN, NaN, NaN, 0.03601294, "- N/A -   "
29.61, 1261.88, 0.0495261, NaN, NaN, NaN, 0.0335714, "- N/A -   "
29.76, 1268.44, 0.0497733, NaN, NaN, NaN, 0.0347922, "- N/A -   "
29.91, 1274.758, 0.0500121, NaN, NaN, NaN, 0.0384545, "- N/A -   "
30.06, 1281.2, 0.0502537, NaN, NaN, NaN, 0.04211683, "- N/A -   "
30.21, 1288.35, 0.050523, NaN, NaN, NaN, 0.0335714, "- N/A -   "
30.36, 1295.51, 0.05078957, NaN, NaN, NaN, 0.0262467, "- N/A -   "
30.42, 1297.89, 0.05088398, NaN, NaN, NaN, 0.0299091, "- N/A -   "