Folder: DigitalTwins-Machine-Learning/2_Tensile_Data (part 15)

File: Hamel_ForceTest_Bolt5_Test6.csv
Time, Load (lb), Position (in), AxialStrain (in), TransverseStrain (in), Auxiliary (), Control Out (V), Stress (psi)
0.0, 8.138375, 0.0, NaN, NaN, NaN, -0.007935055, "- N/A -   "
0.01, 8.020428, -2.776752E-6, NaN, NaN, NaN, 6.103888E-4, "- N/A -   "
0.02, 8.138375, 0.0, NaN, NaN, NaN, 0.006714277, "- N/A -   "
0.03, 8.138375, 0.0, NaN, NaN, NaN, 0.0177013, "- N/A -   "
0.04, 8.138375, 2.776752E-6, NaN, NaN, NaN, 0.03601294, "- N/A -   "
0.05, 8.138375, 8.330256E-6, NaN, NaN, NaN, 0.05188305, "- N/A -   "
0.06, 8.37427, 2.2214e-05, NaN, NaN, NaN, 0.06653238, "- N/A -   "
0.07, 8.728113, 4.16513e-05, NaN, NaN, NaN, 0.07751938, "- N/A -   "
0.08, 9.081955, 6.386529E-5, NaN, NaN, NaN, 0.08850638, "- N/A -   "
0.09, 9.435798, 8.885606E-5, NaN, NaN, NaN, 0.09705182, "- N/A -   "
0.1, 9.78964, 0.000113847, NaN, NaN, NaN, 0.104376, "- N/A -   "
0.11, 10.3794, 0.000141614, NaN, NaN, NaN, 0.105597, "- N/A -   "
0.12, 10.8512, 0.000172159, NaN, NaN, NaN, 0.100714, "- N/A -   "
0.13, 11.323, 0.000202703, NaN, NaN, NaN, 0.09461027, "- N/A -   "
0.14, 11.7947, 2.304704E-4, NaN, NaN, NaN, 0.0897272, "- N/A -   "
0.15, 12.14859, 2.582379E-4, NaN, NaN, NaN, 0.08362327, "- N/A -   "
0.16, 12.6204, 2.832287E-4, NaN, NaN, NaN, 0.08118171, "- N/A -   "
0.17, 13.09217, 0.000308219, NaN, NaN, NaN, 0.07751938, "- N/A -   "
0.18, 13.446, 0.000330433, NaN, NaN, NaN, 0.0750778, "- N/A -   "
0.19, 13.6819, 0.000349871, NaN, NaN, NaN, 0.07263627, "- N/A -   "
0.2, 14.1537, 0.000372085, NaN, NaN, NaN, 0.0701947, "- N/A -   "
0.21, 14.3896, 0.000394299, NaN, NaN, NaN, 0.06775316, "- N/A -   "
0.22, 14.8614, 4.13736E-4, NaN, NaN, NaN, 0.06653238, "- N/A -   "
0.23, 15.0973, 0.00043595, NaN, NaN, NaN, 0.0640908, "- N/A -   "
0.24, 15.4511, 0.000458164, NaN, NaN, NaN, 0.06287005, "- N/A -   "
0.25, 15.805, 4.776013E-4, NaN, NaN, NaN, 0.0604285, "- N/A -   "
0.26, 16.1588, 0.000499815, NaN, NaN, NaN, 0.0579869, "- N/A -   "
0.27, 16.5126, 5.192526E-4, NaN, NaN, NaN, 0.05676616, "- N/A -   "
0.28, 16.86649, 5.442434E-4, NaN, NaN, NaN, 0.0531038, "- N/A -   "
0.29, 17.3383, 5.664574E-4, NaN, NaN, NaN, 0.05066227, "- N/A -   "
0.3, 17.6921, 0.000591448, NaN, NaN, NaN, 0.0482207, "- N/A -   "
0.31, 18.046, 6.108854E-4, NaN, NaN, NaN, 0.04577916, "- N/A -   "
0.32, 18.3998, 6.330994E-4, NaN, NaN, NaN, 0.0433376, "- N/A -   "
0.33, 18.6357, 0.000655313, NaN, NaN, NaN, 0.04211683, "- N/A -   "
0.34, 18.9895, 6.719739E-4, NaN, NaN, NaN, 0.04089605, "- N/A -   "
0.35, 19.3434, 6.914112E-4, NaN, NaN, NaN, 0.04089605, "- N/A -   "
0.36, 19.57928, 0.000705295, NaN, NaN, NaN, 0.04089605, "- N/A -   "
0.37, 19.8152, 0.000724732, NaN, NaN, NaN, 0.04089605, "- N/A -   "
0.38, 20.169, 7.413927E-4, NaN, NaN, NaN, 0.0396753, "- N/A -   "
0.39, 20.4049, 7.6083E-4, NaN, NaN, NaN, 0.0396753, "- N/A -   "
0.4, 20.7588, 7.774905E-4, NaN, NaN, NaN, 0.0384545, "- N/A -   "
0.41, 21.1126, 7.969278E-4, NaN, NaN, NaN, 0.0384545, "- N/A -   "
0.42, 21.3485, 0.000813588, NaN, NaN, NaN, 0.0372337, "- N/A -   "
0.43, 21.5844, 0.000833026, NaN, NaN, NaN, 0.0372337, "- N/A -   "
0.44, 21.93823, 0.000849686, NaN, NaN, NaN, 0.03601294, "- N/A -   "
0.45, 22.1741, 8.691233E-4, NaN, NaN, NaN, 0.03601294, "- N/A -   "
0.46, 22.528, 8.857838E-4, NaN, NaN, NaN, 0.0347922, "- N/A -   "
0.47, 22.6459, 0.000902444, NaN, NaN, NaN, 0.0347922, "- N/A -   "
0.51, 24.0613, 9.801934E-4, NaN, NaN, NaN, 0.03112983, "- N/A -   "
0.55, 25.2408, 0.00104961, NaN, NaN, NaN, 0.0286883, "- N/A -   "
0.59, 26.3023, 0.0011107, NaN, NaN, NaN, 0.03112983, "- N/A -   "
0.63, 27.2459, 0.00117179, NaN, NaN, NaN, 0.0347922, "- N/A -   "
0.67, 28.0715, 0.00122732, NaN, NaN, NaN, 0.0384545, "- N/A -   "
0.71, 29.0151, 0.00128286, NaN, NaN, NaN, 0.0433376, "- N/A -   "
0.75, 29.9587, 0.00134117, NaN, NaN, NaN, 0.04699994, "- N/A -   "
0.79, 31.1381, 0.00140781, NaN, NaN, NaN, 0.0482207, "- N/A -   "
0.83, 32.5535, 0.001477232, NaN, NaN, NaN, 0.04577916, "- N/A -   "
0.87, 33.8509, 0.001554981, NaN, NaN, NaN, 0.04089605, "- N/A -   "
0.91, 35.0304, 0.00162718, NaN, NaN, NaN, 0.0384545, "- N/A -   "
0.95, 36.2099, 0.00169382, NaN, NaN, NaN, 0.0384545, "- N/A -   "
0.99, 37.5073, 0.00176879, NaN, NaN, NaN, 0.0347922, "- N/A -   "
1.03, 38.8047, 0.00183821, NaN, NaN, NaN, 0.0335714, "- N/A -   "
1.07, 39.98419, 0.001913182, NaN, NaN, NaN, 0.03112983, "- N/A -   "
1.11, 41.2816, 0.001982601, NaN, NaN, NaN, 0.0286883, "- N/A -   "
1.15, 42.4611, 0.00205202, NaN, NaN, NaN, 0.0274675, "- N/A -   "
1.19, 43.6406, 0.00211588, NaN, NaN, NaN, 0.0286883, "- N/A -   "
1.23, 44.70209, 0.00217697, NaN, NaN, NaN, 0.03112983, "- N/A -   "
1.27, 45.6457, 0.002238062, NaN, NaN, NaN, 0.0347922, "- N/A -   "
1.31, 46.7072, 0.002293597, NaN, NaN, NaN, 0.0384545, "- N/A -   "
1.35, 47.7687, 0.00235191, NaN, NaN, NaN, 0.04211683, "- N/A -   "
1.39, 48.83025, 0.002413, NaN, NaN, NaN, 0.0445584, "- N/A -   "
1.43, 49.8918, 0.00247686, NaN, NaN, NaN, 0.04577916, "- N/A -   "
1.47, 51.1892, 0.0025435, NaN, NaN, NaN, 0.04577916, "- N/A -   "
1.51, 52.36868, 0.00261292, NaN, NaN, NaN, 0.0445584, "- N/A -   "
1.55, 53.54815, 0.00268512, NaN, NaN, NaN, 0.04211683, "- N/A -   "
1.59, 54.8456, 0.00275454, NaN, NaN, NaN, 0.04089605, "- N/A -   "
1.63, 56.2609, 0.00283229, NaN, NaN, NaN, 0.03601294, "- N/A -   "
1.67, 57.5584, 0.00290726, NaN, NaN, NaN, 0.0323506, "- N/A -   "
1.71, 58.8558, 0.00297945, NaN, NaN, NaN, 0.0299091, "- N/A -   "
1.75, 59.9173, 0.0030461, NaN, NaN, NaN, 0.0299091, "- N/A -   "
1.79, 60.97884, 0.003112739, NaN, NaN, NaN, 0.0299091, "- N/A -   "
1.83, 62.1583, 0.0031766, NaN, NaN, NaN, 0.03112983, "- N/A -   "
1.87, 63.33779, 0.00323769, NaN, NaN, NaN, 0.0335714, "- N/A -   "
1.91, 64.28137, 0.003301558, NaN, NaN, NaN, 0.03601294, "- N/A -   "
1.95, 65.4608, 0.00336542, NaN, NaN, NaN, 0.03601294, "- N/A -   "
1.99, 66.52237, 0.00343207, NaN, NaN, NaN, 0.0372337, "- N/A -   "
2.03, 67.5839, 0.00349315, NaN, NaN, NaN, 0.0396753, "- N/A -   "
2.07, 68.6454, 0.00355424, NaN, NaN, NaN, 0.04089605, "- N/A -   "
2.11, 69.589, 0.003615331, NaN, NaN, NaN, 0.0433376, "- N/A -   "
2.15, 70.7685, 0.00367642, NaN, NaN, NaN, 0.04577916, "- N/A -   "
2.19, 71.94796, 0.003748615, NaN, NaN, NaN, 0.0445584, "- N/A -   "
2.23, 73.36333, 0.003826364, NaN, NaN, NaN, 0.0384545, "- N/A -   "
2.27, 74.7787, 0.003904113, NaN, NaN, NaN, 0.0335714, "- N/A -   "
2.31, 75.95817, 0.00397631, NaN, NaN, NaN, 0.03112983, "- N/A -   "
2.35, 77.25559, 0.00404573, NaN, NaN, NaN, 0.0299091, "- N/A -   "
2.39, 78.31712, 0.00410959, NaN, NaN, NaN, 0.03112983, "- N/A -   "
2.43, 79.37865, 0.004173458, NaN, NaN, NaN, 0.0323506, "- N/A -   "
2.47, 80.44018, 0.004234547, NaN, NaN, NaN, 0.03601294, "- N/A -   "
2.51, 81.7376, 0.004306742, NaN, NaN, NaN, 0.0335714, "- N/A -   "
2.55, 82.91707, 0.004376161, NaN, NaN, NaN, 0.0323506, "- N/A -   "
2.59, 84.09654, 0.004442803, NaN, NaN, NaN, 0.0323506, "- N/A -   "
2.63, 85.15807, 0.00450389, NaN, NaN, NaN, 0.0347922, "- N/A -   "
2.67, 86.1017, 0.0045622, NaN, NaN, NaN, 0.0372337, "- N/A -   "
2.71, 87.16318, 0.004620515, NaN, NaN, NaN, 0.04089605, "- N/A -   "
2.75, 88.10676, 0.0046816, NaN, NaN, NaN, 0.0433376, "- N/A -   "
2.79, 89.40418, 0.00475102, NaN, NaN, NaN, 0.0433376, "- N/A -   "
2.83, 90.70161, 0.00482044, NaN, NaN, NaN, 0.04089605, "- N/A -   "
[...]
32.75, 1254.843, 0.0546909, NaN, NaN, NaN, 0.0396753, "- N/A -   "
32.82, 1257.59, 0.0547992, NaN, NaN, NaN, 0.0445584, "- N/A -   "
32.89, 1260.567, 0.054913, NaN, NaN, NaN, 0.04577916, "- N/A -   "
32.96, 1264.26, 0.05504633, NaN, NaN, NaN, 0.0372337, "- N/A -   "
33.03, 1267.48, 0.0551685, NaN, NaN, NaN, 0.0347922, "- N/A -   "
33.1, 1270.7, 0.05529346, NaN, NaN, NaN, 0.0323506, "- N/A -   "
33.17, 1273.57, 0.0554045, NaN, NaN, NaN, 0.0347922, "- N/A -   "
33.24, 1276.55, 0.0555212, NaN, NaN, NaN, 0.0335714, "- N/A -   "
33.31, 1279.77, 0.05564333, NaN, NaN, NaN, 0.0323506, "- N/A -   "
33.38, 1282.63, 0.0557516, NaN, NaN, NaN, 0.03601294, "- N/A -   "
33.45, 1285.133, 0.0558516, NaN, NaN, NaN, 0.04211683, "- N/A -   "
33.52, 1288.472, 0.05597654, NaN, NaN, NaN, 0.0384545, "- N/A -   "
33.59, 1291.33, 0.05609039, NaN, NaN, NaN, 0.0396753, "- N/A -   "
33.66, 1294.554, 0.0562126, NaN, NaN, NaN, 0.0372337, "- N/A -   "
33.73, 1297.65, 0.056332, NaN, NaN, NaN, 0.0372337, "- N/A -   "
33.8, 1300.755, 0.0564514, NaN, NaN, NaN, 0.03601294, "- N/A -   "
33.87, 1303.97, 0.05657632, NaN, NaN, NaN, 0.0323506, "- N/A -   "
33.94, 1307.08, 0.0566902, NaN, NaN, NaN, 0.0323506, "- N/A -   "
34.01, 1310.18, 0.0568096, NaN, NaN, NaN, 0.03112983, "- N/A -   "
34.08, 1313.28, 0.056929, NaN, NaN, NaN, 0.03112983, "- N/A -   "
34.15, 1315.66, 0.05702615, NaN, NaN, NaN, 0.0384545, "- N/A -   "
34.22, 1318.52, 0.05713722, NaN, NaN, NaN, 0.04211683, "- N/A -   "
34.29, 1321.39, 0.0572483, NaN, NaN, NaN, 0.0433376, "- N/A -   "
34.36, 1324.49, 0.05736214, NaN, NaN, NaN, 0.0445584, "- N/A -   "
34.43, 1327.94, 0.0574954, NaN, NaN, NaN, 0.0372337, "- N/A -   "
34.5, 1331.4, 0.05762038, NaN, NaN, NaN, 0.0335714, "- N/A -   "
34.57, 1334.74, 0.05774811, NaN, NaN, NaN, 0.0299091, "- N/A -   "
34.64, 1337.84, 0.05786751, NaN, NaN, NaN, 0.0274675, "- N/A -   "
34.71, 1340.7, 0.05797858, NaN, NaN, NaN, 0.0299091, "- N/A -   "
34.78, 1343.45, 0.05808965, NaN, NaN, NaN, 0.0323506, "- N/A -   "
34.85, 1345.713, 0.05818128, NaN, NaN, NaN, 0.0433376, "- N/A -   "
34.92, 1348.575, 0.0582896, NaN, NaN, NaN, 0.04699994, "- N/A -   "
34.99, 1352.03, 0.0584173, NaN, NaN, NaN, 0.04211683, "- N/A -   "
35.06, 1355.49, 0.0585478, NaN, NaN, NaN, 0.03601294, "- N/A -   "
35.13, 1358.71, 0.0586728, NaN, NaN, NaN, 0.0335714, "- N/A -   "
35.2, 1362.05, 0.05879772, NaN, NaN, NaN, 0.0299091, "- N/A -   "
35.27, 1364.91, 0.0589143, NaN, NaN, NaN, 0.0299091, "- N/A -   "
35.34, 1368.13, 0.0590337, NaN, NaN, NaN, 0.0286883, "- N/A -   "
35.41, 1370.76, 0.0591365, NaN, NaN, NaN, 0.0347922, "- N/A -   "
35.48, 1373.26, 0.05923645, NaN, NaN, NaN, 0.04211683, "- N/A -   "
35.55, 1376.12, 0.0593475, NaN, NaN, NaN, 0.0445584, "- N/A -   "
35.62, 1379.22, 0.0594614, NaN, NaN, NaN, 0.04577916, "- N/A -   "
35.69, 1382.44, 0.0595863, NaN, NaN, NaN, 0.0433376, "- N/A -   "
35.76, 1385.66, 0.05971127, NaN, NaN, NaN, 0.0396753, "- N/A -   "
35.83, 1389.24, 0.0598418, NaN, NaN, NaN, 0.0323506, "- N/A -   "
35.9, 1392.46, 0.0599667, NaN, NaN, NaN, 0.0299091, "- N/A -   "
35.97, 1395.2, 0.060075, NaN, NaN, NaN, 0.0323506, "- N/A -   "
36.04, 1398.06, 0.06018332, NaN, NaN, NaN, 0.03601294, "- N/A -   "
36.11, 1400.93, 0.06029439, NaN, NaN, NaN, 0.0384545, "- N/A -   "
36.18, 1403.67, 0.06040268, NaN, NaN, NaN, 0.04211683, "- N/A -   "
36.25, 1406.65, 0.06051653, NaN, NaN, NaN, 0.0433376, "- N/A -   "
36.32, 1409.75, 0.0606359, NaN, NaN, NaN, 0.04211683, "- N/A -   "
36.39, 1413.45, 0.060772, NaN, NaN, NaN, 0.0335714, "- N/A -   "
36.46, 1416.67, 0.06089972, NaN, NaN, NaN, 0.0299091, "- N/A -   "
36.527, 1419.29, 0.0609997, NaN, NaN, NaN, 0.0335714, "- N/A -   "

File: Hamel_ForceTest_Bolt5_Test7.csv
Time, Load (lb), Position (in), AxialStrain (in), TransverseStrain (in), Auxiliary (), Control Out (V), Stress (psi)
0.0, 12.6204, 0.0, NaN, NaN, NaN, -0.006714277, "- N/A -   "
0.01, 12.7383, 2.776752E-6, NaN, NaN, NaN, -6.103888E-4, "- N/A -   "
0.02, 12.7383, 2.776752E-6, NaN, NaN, NaN, 0.006714277, "- N/A -   "
0.03, 12.7383, 5.553504E-6, NaN, NaN, NaN, 0.01525972, "- N/A -   "
0.04, 12.7383, 5.553504E-6, NaN, NaN, NaN, 0.0347922, "- N/A -   "
0.05, 12.8563, 1.38838e-05, NaN, NaN, NaN, 0.05066227, "- N/A -   "
0.06, 13.09217, 2.49908e-05, NaN, NaN, NaN, 0.0653116, "- N/A -   "
0.07, 13.446, 4.16513e-05, NaN, NaN, NaN, 0.07751938, "- N/A -   "
0.08, 13.7999, 6.386529E-5, NaN, NaN, NaN, 0.0872856, "- N/A -   "
0.09, 14.2716, 8.885606E-5, NaN, NaN, NaN, 0.095831, "- N/A -   "
0.1, 14.8614, 0.0001194, NaN, NaN, NaN, 0.103156, "- N/A -   "
0.11, 15.4511, 1.499446E-4, NaN, NaN, NaN, 0.100714, "- N/A -   "
0.12, 16.0409, 0.000180489, NaN, NaN, NaN, 0.09461027, "- N/A -   "
0.13, 16.6306, 0.00020548, NaN, NaN, NaN, 0.0897272, "- N/A -   "
0.14, 16.9844, 0.000233247, NaN, NaN, NaN, 0.08606482, "- N/A -   "
0.15, 17.5742, 2.582379E-4, NaN, NaN, NaN, 0.08240249, "- N/A -   "
0.16, 18.046, 0.000280452, NaN, NaN, NaN, 0.07874016, "- N/A -   "
0.17, 18.3998, 0.000302666, NaN, NaN, NaN, 0.0762986, "- N/A -   "
0.18, 18.8716, 0.00032488, NaN, NaN, NaN, 0.07385705, "- N/A -   "
0.19, 19.2254, 0.000349871, NaN, NaN, NaN, 0.0701947, "- N/A -   "
0.2, 19.8152, 0.000372085, NaN, NaN, NaN, 0.0689739, "- N/A -   "
0.21, 20.169, 0.000391522, NaN, NaN, NaN, 0.06653238, "- N/A -   "
0.22, 20.52286, 0.000410959, NaN, NaN, NaN, 0.0653116, "- N/A -   "
0.23, 20.7588, 4.276198E-4, NaN, NaN, NaN, 0.0653116, "- N/A -   "
0.24, 21.2305, 0.000449834, NaN, NaN, NaN, 0.0640908, "- N/A -   "
0.25, 21.5844, 0.000469271, NaN, NaN, NaN, 0.06287005, "- N/A -   "
0.26, 22.0562, 4.887083E-4, NaN, NaN, NaN, 0.0604285, "- N/A -   "
0.27, 22.41, 5.081456E-4, NaN, NaN, NaN, 0.0592077, "- N/A -   "
0.28, 22.6459, 0.00053036, NaN, NaN, NaN, 0.05676616, "- N/A -   "
0.29, 23.1177, 0.000549797, NaN, NaN, NaN, 0.0555454, "- N/A -   "
0.3, 23.4715, 0.000569234, NaN, NaN, NaN, 0.0543246, "- N/A -   "
0.31, 23.9433, 0.000591448, NaN, NaN, NaN, 0.05188305, "- N/A -   "
0.32, 24.1792, 6.136621E-4, NaN, NaN, NaN, 0.0494415, "- N/A -   "
0.33, 24.65102, 0.000635876, NaN, NaN, NaN, 0.04699994, "- N/A -   "
0.34, 25.1228, 0.00065809, NaN, NaN, NaN, 0.0445584, "- N/A -   "
0.35, 25.4767, 0.000677527, NaN, NaN, NaN, 0.0433376, "- N/A -   "
0.36, 25.8305, 6.969647E-4, NaN, NaN, NaN, 0.04211683, "- N/A -   "
0.37, 26.18434, 0.000716402, NaN, NaN, NaN, 0.04089605, "- N/A -   "
0.38, 26.5382, 0.000735839, NaN, NaN, NaN, 0.0396753, "- N/A -   "
0.39, 26.892, 7.552765E-4, NaN, NaN, NaN, 0.0396753, "- N/A -   "
0.4, 27.1279, 7.71937E-4, NaN, NaN, NaN, 0.0384545, "- N/A -   "
0.41, 27.4818, 7.885975E-4, NaN, NaN, NaN, 0.0384545, "- N/A -   "
0.42, 27.7177, 0.000805258, NaN, NaN, NaN, 0.0384545, "- N/A -   "
0.43, 28.0715, 8.246953E-4, NaN, NaN, NaN, 0.0372337, "- N/A -   "
0.44, 28.42534, 8.413558E-4, NaN, NaN, NaN, 0.0372337, "- N/A -   "
0.45, 28.7792, 8.580163E-4, NaN, NaN, NaN, 0.0372337, "- N/A -   "
0.46, 29.0151, 8.746768E-4, NaN, NaN, NaN, 0.0372337, "- N/A -   "
0.47, 29.251, 8.941141E-4, NaN, NaN, NaN, 0.0372337, "- N/A -   "
0.48, 29.7228, 9.107746E-4, NaN, NaN, NaN, 0.03601294, "- N/A -   "
0.54, 31.72787, 0.00102184, NaN, NaN, NaN, 0.03112983, "- N/A -   "
0.6, 33.49708, 0.00112736, NaN, NaN, NaN, 0.0286883, "- N/A -   "
0.66, 35.1483, 0.00121622, NaN, NaN, NaN, 0.0335714, "- N/A -   "
0.72, 36.6817, 0.00130507, NaN, NaN, NaN, 0.0384545, "- N/A -   "
0.78, 38.215, 0.00139115, NaN, NaN, NaN, 0.04577916, "- N/A -   "
0.84, 39.8662, 0.00148279, NaN, NaN, NaN, 0.0482207, "- N/A -   "
0.9, 41.7534, 0.0015883, NaN, NaN, NaN, 0.04577916, "- N/A -   "
0.96, 43.9944, 0.0017077, NaN, NaN, NaN, 0.0372337, "- N/A -   "
1.02, 45.8816, 0.001816, NaN, NaN, NaN, 0.0335714, "- N/A -   "
1.08, 47.5328, 0.00192151, NaN, NaN, NaN, 0.03112983, "- N/A -   "
1.14, 49.41999, 0.002024252, NaN, NaN, NaN, 0.0299091, "- N/A -   "
1.2, 51.0713, 0.00212422, NaN, NaN, NaN, 0.0299091, "- N/A -   "
1.26, 52.84047, 0.002226955, NaN, NaN, NaN, 0.0286883, "- N/A -   "
1.32, 54.3738, 0.00231303, NaN, NaN, NaN, 0.0347922, "- N/A -   "
1.38, 55.7892, 0.00239634, NaN, NaN, NaN, 0.04211683, "- N/A -   "
1.44, 57.20452, 0.00248797, NaN, NaN, NaN, 0.04577916, "- N/A -   "
1.5, 59.2096, 0.00259071, NaN, NaN, NaN, 0.0445584, "- N/A -   "
1.56, 60.8609, 0.00269067, NaN, NaN, NaN, 0.0445584, "- N/A -   "
1.62, 62.866, 0.002798966, NaN, NaN, NaN, 0.04211683, "- N/A -   "
1.68, 64.87111, 0.00291281, NaN, NaN, NaN, 0.0347922, "- N/A -   "
1.74, 66.99416, 0.00302388, NaN, NaN, NaN, 0.0299091, "- N/A -   "
1.8, 68.7634, 0.003123846, NaN, NaN, NaN, 0.0299091, "- N/A -   "
1.86, 70.17874, 0.00321548, NaN, NaN, NaN, 0.0335714, "- N/A -   "
1.92, 72.06591, 0.003309888, NaN, NaN, NaN, 0.03601294, "- N/A -   "
1.98, 73.9531, 0.003409851, NaN, NaN, NaN, 0.03601294, "- N/A -   "
2.04, 75.7223, 0.00350981, NaN, NaN, NaN, 0.03601294, "- N/A -   "
2.1, 77.25559, 0.00360145, NaN, NaN, NaN, 0.04089605, "- N/A -   "
2.16, 79.14275, 0.00369308, NaN, NaN, NaN, 0.0433376, "- N/A -   "
2.22, 80.794, 0.00378749, NaN, NaN, NaN, 0.04577916, "- N/A -   "
2.28, 83.03502, 0.00390134, NaN, NaN, NaN, 0.0396753, "- N/A -   "
2.34, 85.276, 0.00402074, NaN, NaN, NaN, 0.0323506, "- N/A -   "
2.4, 87.16318, 0.00412903, NaN, NaN, NaN, 0.0286883, "- N/A -   "
2.46, 88.8144, 0.00422066, NaN, NaN, NaN, 0.03112983, "- N/A -   "
2.52, 90.4657, 0.004312296, NaN, NaN, NaN, 0.0347922, "- N/A -   "
2.58, 92.35287, 0.004412259, NaN, NaN, NaN, 0.0347922, "- N/A -   "
2.64, 94.59387, 0.004523329, NaN, NaN, NaN, 0.0299091, "- N/A -   "
2.7, 96.12719, 0.00461774, NaN, NaN, NaN, 0.0335714, "- N/A -   "
2.76, 97.6605, 0.004698264, NaN, NaN, NaN, 0.04089605, "- N/A -   "
2.82, 99.3118, 0.00479545, NaN, NaN, NaN, 0.0433376, "- N/A -   "
2.88, 101.435, 0.00489819, NaN, NaN, NaN, 0.04089605, "- N/A -   "
2.94, 103.44, 0.005003707, NaN, NaN, NaN, 0.0384545, "- N/A -   "
3, 105.327, 0.00510645, NaN, NaN, NaN, 0.0372337, "- N/A -   "
3.06, 107.214, 0.00520919, NaN, NaN, NaN, 0.03601294, "- N/A -   "
3.12, 108.866, 0.00530637, NaN, NaN, NaN, 0.0372337, "- N/A -   "
3.18, 110.989, 0.00541744, NaN, NaN, NaN, 0.0323506, "- N/A -   "
3.24, 112.876, 0.00552018, NaN, NaN, NaN, 0.0323506, "- N/A -   "
3.3, 114.645, 0.00562015, NaN, NaN, NaN, 0.03112983, "- N/A -   "
3.36, 116.296, 0.00571456, NaN, NaN, NaN, 0.0335714, "- N/A -   "
3.42, 118.065, 0.005814519, NaN, NaN, NaN, 0.0335714, "- N/A -   "
3.48, 119.717, 0.00590337, NaN, NaN, NaN, 0.0384545, "- N/A -   "
3.54, 121.486, 0.005997784, NaN, NaN, NaN, 0.04089605, "- N/A -   "
3.6, 123.137, 0.006089417, NaN, NaN, NaN, 0.0445584, "- N/A -   "
3.66, 125.024, 0.006192157, NaN, NaN, NaN, 0.0445584, "- N/A -   "
3.72, 127.147, 0.006303227, NaN, NaN, NaN, 0.0396753, "- N/A -   "
3.78, 129.27, 0.00641707, NaN, NaN, NaN, 0.0335714, "- N/A -   "
3.84, 130.922, 0.00651704, NaN, NaN, NaN, 0.0347922, "- N/A -   "
3.9, 132.6909, 0.006617, NaN, NaN, NaN, 0.0347922, "- N/A -   "
3.96, 134.814, 0.00672252, NaN, NaN, NaN, 0.0323506, "- N/A -   "
4.02, 136.583, 0.006825256, NaN, NaN, NaN, 0.0299091, "- N/A -   "
[...]
29.89, 1165.52, 0.0499371, NaN, NaN, NaN, 0.0323506, "- N/A -   "
30.03, 1171.37, 0.05015647, NaN, NaN, NaN, 0.0372337, "- N/A -   "
30.17, 1177.33, 0.0503814, NaN, NaN, NaN, 0.04211683, "- N/A -   "
30.31, 1184.01, 0.0506257, NaN, NaN, NaN, 0.03601294, "- N/A -   "
30.45, 1190.21, 0.050859, NaN, NaN, NaN, 0.03601294, "- N/A -   "
30.59, 1196.53, 0.0511006, NaN, NaN, NaN, 0.0323506, "- N/A -   "
30.73, 1202.61, 0.0513338, NaN, NaN, NaN, 0.0323506, "- N/A -   "
30.87, 1208.33, 0.0515504, NaN, NaN, NaN, 0.04089605, "- N/A -   "
31.01, 1214.42, 0.05178087, NaN, NaN, NaN, 0.04211683, "- N/A -   "
31.15, 1220.98, 0.05202522, NaN, NaN, NaN, 0.0372337, "- N/A -   "
31.29, 1227.89, 0.0522862, NaN, NaN, NaN, 0.0250259, "- N/A -   "
31.43, 1233.02, 0.0524862, NaN, NaN, NaN, 0.0396753, "- N/A -   "
31.57, 1238.51, 0.0526972, NaN, NaN, NaN, 0.0494415, "- N/A -   "
31.71, 1245.54, 0.0529638, NaN, NaN, NaN, 0.0347922, "- N/A -   "
31.85, 1251.981, 0.05320534, NaN, NaN, NaN, 0.03112983, "- N/A -   "
31.99, 1258.18, 0.0534414, NaN, NaN, NaN, 0.03112983, "- N/A -   "
32.13, 1263.31, 0.0536441, NaN, NaN, NaN, 0.0433376, "- N/A -   "
32.27, 1269.51, 0.0538773, NaN, NaN, NaN, 0.0433376, "- N/A -   "
32.41, 1276.43, 0.0541356, NaN, NaN, NaN, 0.0323506, "- N/A -   "
32.55, 1282.75, 0.0543799, NaN, NaN, NaN, 0.0286883, "- N/A -   "
32.69, 1288.23, 0.05458816, NaN, NaN, NaN, 0.0384545, "- N/A -   "
32.83, 1294.2, 0.0548131, NaN, NaN, NaN, 0.04211683, "- N/A -   "
32.97, 1300.278, 0.05504633, NaN, NaN, NaN, 0.04211683, "- N/A -   "
33.11, 1307.31, 0.0553046, NaN, NaN, NaN, 0.03112983, "- N/A -   "
33.25, 1312.92, 0.0555239, NaN, NaN, NaN, 0.0372337, "- N/A -   "
33.39, 1319.239, 0.05575995, NaN, NaN, NaN, 0.03601294, "- N/A -   "
33.53, 1325.08, 0.05598487, NaN, NaN, NaN, 0.0396753, "- N/A -   "
33.67, 1331.28, 0.0562209, NaN, NaN, NaN, 0.0384545, "- N/A -   "
33.81, 1337.6, 0.0564597, NaN, NaN, NaN, 0.03601294, "- N/A -   "
33.95, 1344.04, 0.056704, NaN, NaN, NaN, 0.03112983, "- N/A -   "
34.09, 1350.24, 0.0569345, NaN, NaN, NaN, 0.0323506, "- N/A -   "
34.23, 1355.611, 0.0571511, NaN, NaN, NaN, 0.04089605, "- N/A -   "
34.37, 1361.69, 0.05737602, NaN, NaN, NaN, 0.0433376, "- N/A -   "
34.51, 1368.61, 0.05763426, NaN, NaN, NaN, 0.0323506, "- N/A -   "
34.65, 1374.93, 0.05787306, NaN, NaN, NaN, 0.0299091, "- N/A -   "
34.79, 1380.77, 0.0581008, NaN, NaN, NaN, 0.0323506, "- N/A -   "
34.93, 1386.02, 0.0583035, NaN, NaN, NaN, 0.04577916, "- N/A -   "
35.07, 1392.82, 0.0585534, NaN, NaN, NaN, 0.0384545, "- N/A -   "
35.21, 1399.38, 0.05880327, NaN, NaN, NaN, 0.03112983, "- N/A -   "
35.35, 1405.7, 0.0590476, NaN, NaN, NaN, 0.0286883, "- N/A -   "
35.49, 1411.06, 0.05925033, NaN, NaN, NaN, 0.04089605, "- N/A -   "
35.63, 1416.79, 0.0594697, NaN, NaN, NaN, 0.04699994, "- N/A -   "
35.77, 1423.7, 0.0597252, NaN, NaN, NaN, 0.0372337, "- N/A -   "
35.91, 1430.382, 0.0599806, NaN, NaN, NaN, 0.0286883, "- N/A -   "
36.05, 1435.87, 0.0601944, NaN, NaN, NaN, 0.03601294, "- N/A -   "
36.19, 1441.95, 0.06042212, NaN, NaN, NaN, 0.0384545, "- N/A -   "
36.33, 1447.55, 0.0606415, NaN, NaN, NaN, 0.0445584, "- N/A -   "
36.47, 1454.59, 0.0609053, NaN, NaN, NaN, 0.03112983, "- N/A -   "
36.61, 1460.195, 0.06112464, NaN, NaN, NaN, 0.0372337, "- N/A -   "
36.75, 1466.75, 0.06137177, NaN, NaN, NaN, 0.03112983, "- N/A -   "
36.89, 1472.12, 0.06158, NaN, NaN, NaN, 0.04211683, "- N/A -   "
37.03, 1478.08, 0.0618105, NaN, NaN, NaN, 0.0433376, "- N/A -   "
37.17, 1484.88, 0.06206318, NaN, NaN, NaN, 0.0347922, "- N/A -   "
37.172, 1485, 0.06206596, NaN, NaN, NaN, 0.03601294, "- N/A -   "