Folder: DigitalTwins-Machine-Learning/2_Tensile_Data (part 4)

File: Hamel_ForceTest_Bolt3_Test5.csv
Time, Load (lb), Position (in), AxialStrain (in), TransverseStrain (in), Auxiliary (), Control Out (V), Stress (psi)
0.0, 1.06153, 0.0, NaN, NaN, NaN, 0.0872856, "- N/A -   "
0.01, 1.88716, 2.49908e-05, NaN, NaN, NaN, 0.095831, "- N/A -   "
0.02, 2.476897, 5.27583e-05, NaN, NaN, NaN, 0.103156, "- N/A -   "
0.03, 3.18458, 8.607931E-5, NaN, NaN, NaN, 0.0982726, "- N/A -   "
0.04, 3.89227, 0.000116624, NaN, NaN, NaN, 0.09216871, "- N/A -   "
0.05, 4.482, 0.000147168, NaN, NaN, NaN, 0.0872856, "- N/A -   "
0.06, 5.071741, 0.000172159, NaN, NaN, NaN, 0.08362327, "- N/A -   "
0.07, 5.66148, 0.000197149, NaN, NaN, NaN, 0.07874016, "- N/A -   "
0.08, 6.369163, 0.00022214, NaN, NaN, NaN, 0.0750778, "- N/A -   "
0.09, 6.84095, 0.000249908, NaN, NaN, NaN, 0.0701947, "- N/A -   "
0.1, 7.430691, 0.000274898, NaN, NaN, NaN, 0.06653238, "- N/A -   "
0.11, 8.020428, 0.000302666, NaN, NaN, NaN, 0.06164927, "- N/A -   "
0.12, 8.610166, 0.00032488, NaN, NaN, NaN, 0.0592077, "- N/A -   "
0.13, 9.199903, 0.000352647, NaN, NaN, NaN, 0.0543246, "- N/A -   "
0.14, 9.671693, 0.000377638, NaN, NaN, NaN, 0.05066227, "- N/A -   "
0.15, 10.1435, 0.000399852, NaN, NaN, NaN, 0.0482207, "- N/A -   "
0.16, 10.6153, 0.000422066, NaN, NaN, NaN, 0.04699994, "- N/A -   "
0.17, 11.0871, 0.000441504, NaN, NaN, NaN, 0.0445584, "- N/A -   "
0.18, 11.4409, 0.000463718, NaN, NaN, NaN, 0.0433376, "- N/A -   "
0.19, 11.9127, 0.000480378, NaN, NaN, NaN, 0.04211683, "- N/A -   "
0.2, 12.2665, 0.000499815, NaN, NaN, NaN, 0.04089605, "- N/A -   "
0.21, 12.6204, 5.192526E-4, NaN, NaN, NaN, 0.04089605, "- N/A -   "
0.22, 13.09217, 5.359131E-4, NaN, NaN, NaN, 0.0396753, "- N/A -   "
0.23, 13.446, 5.525736E-4, NaN, NaN, NaN, 0.0396753, "- N/A -   "
0.24, 13.7999, 0.000569234, NaN, NaN, NaN, 0.0396753, "- N/A -   "
0.25, 14.0357, 5.831179E-4, NaN, NaN, NaN, 0.04089605, "- N/A -   "
0.26, 14.2716, 5.997784E-4, NaN, NaN, NaN, 0.04211683, "- N/A -   "
0.27, 14.6255, 6.108854E-4, NaN, NaN, NaN, 0.0433376, "- N/A -   "
0.28, 14.8614, 0.000624769, NaN, NaN, NaN, 0.0445584, "- N/A -   "
0.29, 15.0973, 0.000638653, NaN, NaN, NaN, 0.04577916, "- N/A -   "
0.3, 15.4511, 6.525367E-4, NaN, NaN, NaN, 0.04699994, "- N/A -   "
0.31, 15.805, 6.691972E-4, NaN, NaN, NaN, 0.04699994, "- N/A -   "
0.32, 16.0409, 6.858577E-4, NaN, NaN, NaN, 0.04699994, "- N/A -   "
0.33, 16.3947, 6.997415E-4, NaN, NaN, NaN, 0.0482207, "- N/A -   "
0.34, 16.74854, 7.191787E-4, NaN, NaN, NaN, 0.0482207, "- N/A -   "
0.35, 17.2203, 0.000733062, NaN, NaN, NaN, 0.0482207, "- N/A -   "
0.36, 17.4562, 7.49723E-4, NaN, NaN, NaN, 0.0482207, "- N/A -   "
0.37, 17.8101, 7.663835E-4, NaN, NaN, NaN, 0.0482207, "- N/A -   "
0.38, 18.16391, 0.000783044, NaN, NaN, NaN, 0.0482207, "- N/A -   "
0.39, 18.5178, 7.997045E-4, NaN, NaN, NaN, 0.0482207, "- N/A -   "
0.4, 18.8716, 8.191418E-4, NaN, NaN, NaN, 0.0482207, "- N/A -   "
0.41, 19.2254, 8.358023E-4, NaN, NaN, NaN, 0.04699994, "- N/A -   "
0.45, 20.7588, 0.000913551, NaN, NaN, NaN, 0.04211683, "- N/A -   "
0.49, 22.29207, 9.857469E-4, NaN, NaN, NaN, 0.0396753, "- N/A -   "
0.53, 23.82539, 0.00105794, NaN, NaN, NaN, 0.0372337, "- N/A -   "
0.57, 25.2408, 0.001130138, NaN, NaN, NaN, 0.0347922, "- N/A -   "
0.61, 26.6561, 0.00119678, NaN, NaN, NaN, 0.0347922, "- N/A -   "
0.65, 28.1894, 0.00127175, NaN, NaN, NaN, 0.03112983, "- N/A -   "
0.69, 29.4869, 0.00133839, NaN, NaN, NaN, 0.03112983, "- N/A -   "
0.73, 30.9022, 0.00140781, NaN, NaN, NaN, 0.0299091, "- N/A -   "
0.77, 32.3176, 0.00147446, NaN, NaN, NaN, 0.0299091, "- N/A -   "
0.81, 33.49708, 0.00153554, NaN, NaN, NaN, 0.0323506, "- N/A -   "
0.85, 34.55861, 0.00159386, NaN, NaN, NaN, 0.03601294, "- N/A -   "
0.89, 35.7381, 0.00165217, NaN, NaN, NaN, 0.0396753, "- N/A -   "
0.93, 36.9176, 0.00171048, NaN, NaN, NaN, 0.0445584, "- N/A -   "
0.97, 38.215, 0.00177157, NaN, NaN, NaN, 0.04577916, "- N/A -   "
1.01, 39.5124, 0.00183821, NaN, NaN, NaN, 0.04577916, "- N/A -   "
1.05, 41.04572, 0.00190763, NaN, NaN, NaN, 0.0445584, "- N/A -   "
1.09, 42.2252, 0.00197427, NaN, NaN, NaN, 0.0445584, "- N/A -   "
1.13, 43.6406, 0.00204369, NaN, NaN, NaN, 0.0433376, "- N/A -   "
1.17, 45.29183, 0.00212144, NaN, NaN, NaN, 0.0384545, "- N/A -   "
1.21, 46.7072, 0.00219641, NaN, NaN, NaN, 0.0347922, "- N/A -   "
1.25, 48.3585, 0.002271383, NaN, NaN, NaN, 0.03112983, "- N/A -   "
1.29, 49.7738, 0.00234636, NaN, NaN, NaN, 0.0274675, "- N/A -   "
1.33, 51.1892, 0.002413, NaN, NaN, NaN, 0.0274675, "- N/A -   "
1.37, 52.36868, 0.00247686, NaN, NaN, NaN, 0.0286883, "- N/A -   "
1.41, 53.4302, 0.00253517, NaN, NaN, NaN, 0.0323506, "- N/A -   "
1.45, 54.7276, 0.00259349, NaN, NaN, NaN, 0.03601294, "- N/A -   "
1.49, 55.9071, 0.00265457, NaN, NaN, NaN, 0.0384545, "- N/A -   "
1.53, 57.08658, 0.00272122, NaN, NaN, NaN, 0.0384545, "- N/A -   "
1.57, 58.5019, 0.00279064, NaN, NaN, NaN, 0.0372337, "- N/A -   "
1.61, 59.79937, 0.00285728, NaN, NaN, NaN, 0.0384545, "- N/A -   "
1.65, 60.97884, 0.00291281, NaN, NaN, NaN, 0.04211683, "- N/A -   "
1.69, 62.2763, 0.00297668, NaN, NaN, NaN, 0.0445584, "- N/A -   "
1.73, 63.45574, 0.003040543, NaN, NaN, NaN, 0.0445584, "- N/A -   "
1.77, 64.75317, 0.00310719, NaN, NaN, NaN, 0.0445584, "- N/A -   "
1.81, 66.2865, 0.00318216, NaN, NaN, NaN, 0.04089605, "- N/A -   "
1.85, 67.9377, 0.003259907, NaN, NaN, NaN, 0.03601294, "- N/A -   "
1.89, 69.35311, 0.003337656, NaN, NaN, NaN, 0.0323506, "- N/A -   "
1.93, 70.7685, 0.00340707, NaN, NaN, NaN, 0.0299091, "- N/A -   "
1.97, 71.94796, 0.00347372, NaN, NaN, NaN, 0.0299091, "- N/A -   "
2.01, 73.12743, 0.00353481, NaN, NaN, NaN, 0.0323506, "- N/A -   "
2.05, 74.3069, 0.00359867, NaN, NaN, NaN, 0.0335714, "- N/A -   "
2.09, 75.6043, 0.00366254, NaN, NaN, NaN, 0.0347922, "- N/A -   "
2.13, 77.0197, 0.00373473, NaN, NaN, NaN, 0.0323506, "- N/A -   "
2.17, 78.31712, 0.00380137, NaN, NaN, NaN, 0.0323506, "- N/A -   "
2.21, 79.37865, 0.00386246, NaN, NaN, NaN, 0.0347922, "- N/A -   "
2.25, 80.32223, 0.00392077, NaN, NaN, NaN, 0.0384545, "- N/A -   "
2.29, 81.5017, 0.003981862, NaN, NaN, NaN, 0.04089605, "- N/A -   "
2.33, 82.79912, 0.00404573, NaN, NaN, NaN, 0.0433376, "- N/A -   "
2.37, 83.9786, 0.00411237, NaN, NaN, NaN, 0.04211683, "- N/A -   "
2.41, 85.51192, 0.00418179, NaN, NaN, NaN, 0.04089605, "- N/A -   "
2.45, 86.69139, 0.00425121, NaN, NaN, NaN, 0.04089605, "- N/A -   "
2.49, 87.9888, 0.004323403, NaN, NaN, NaN, 0.0372337, "- N/A -   "
2.53, 89.28623, 0.004392822, NaN, NaN, NaN, 0.03601294, "- N/A -   "
2.57, 90.4657, 0.004456687, NaN, NaN, NaN, 0.0372337, "- N/A -   "
2.61, 91.64519, 0.004523329, NaN, NaN, NaN, 0.0372337, "- N/A -   "
2.65, 92.82466, 0.004592748, NaN, NaN, NaN, 0.03601294, "- N/A -   "
2.69, 94.24, 0.004664943, NaN, NaN, NaN, 0.0335714, "- N/A -   "
2.73, 95.5374, 0.00473714, NaN, NaN, NaN, 0.0323506, "- N/A -   "
2.77, 96.599, 0.004798227, NaN, NaN, NaN, 0.0335714, "- N/A -   "
2.81, 97.6605, 0.004864869, NaN, NaN, NaN, 0.0335714, "- N/A -   "
2.85, 98.83998, 0.00493151, NaN, NaN, NaN, 0.0335714, "- N/A -   "
2.89, 100.019, 0.004998153, NaN, NaN, NaN, 0.0335714, "- N/A -   "
2.93, 101.199, 0.0050648, NaN, NaN, NaN, 0.0335714, "- N/A -   "
2.97, 102.26, 0.00513144, NaN, NaN, NaN, 0.0335714, "- N/A -   "
3.01, 103.204, 0.005192526, NaN, NaN, NaN, 0.03601294, "- N/A -   "
[...]
19.39, 672.2329, 0.0324713, NaN, NaN, NaN, 0.04577916, "- N/A -   "
19.51, 677.437, 0.0326851, NaN, NaN, NaN, 0.0396753, "- N/A -   "
19.63, 682.5233, 0.0328934, NaN, NaN, NaN, 0.03601294, "- N/A -   "
19.75, 687.491, 0.03310444, NaN, NaN, NaN, 0.03112983, "- N/A -   "
19.87, 692.2224, 0.03330436, NaN, NaN, NaN, 0.03112983, "- N/A -   "
19.99, 697.072, 0.03350151, NaN, NaN, NaN, 0.0323506, "- N/A -   "
20.11, 701.33, 0.0336848, NaN, NaN, NaN, 0.0396753, "- N/A -   "
20.23, 705.943, 0.03387082, NaN, NaN, NaN, 0.04577916, "- N/A -   "
20.35, 711.384, 0.0340957, NaN, NaN, NaN, 0.0347922, "- N/A -   "
20.47, 716.2334, 0.03429566, NaN, NaN, NaN, 0.0347922, "- N/A -   "
20.59, 721.556, 0.0345122, NaN, NaN, NaN, 0.0274675, "- N/A -   "
20.71, 725.8141, 0.03468996, NaN, NaN, NaN, 0.0372337, "- N/A -   "
20.83, 729.8357, 0.0348677, NaN, NaN, NaN, 0.04699994, "- N/A -   "
20.95, 735.277, 0.03508426, NaN, NaN, NaN, 0.0396753, "- N/A -   "
21.07, 740.717, 0.0353008, NaN, NaN, NaN, 0.0323506, "- N/A -   "
21.19, 745.8036, 0.03551188, NaN, NaN, NaN, 0.0274675, "- N/A -   "
21.31, 750.2983, 0.0357007, NaN, NaN, NaN, 0.0323506, "- N/A -   "
21.43, 754.556, 0.0358756, NaN, NaN, NaN, 0.0433376, "- N/A -   "
21.55, 759.4059, 0.0360728, NaN, NaN, NaN, 0.0445584, "- N/A -   "
21.67, 764.847, 0.0362921, NaN, NaN, NaN, 0.0372337, "- N/A -   "
21.79, 770.1694, 0.036506, NaN, NaN, NaN, 0.03112983, "- N/A -   "
21.91, 774.782, 0.03669755, NaN, NaN, NaN, 0.0347922, "- N/A -   "
22.03, 779.3953, 0.03688915, NaN, NaN, NaN, 0.0384545, "- N/A -   "
22.15, 783.89, 0.03707519, NaN, NaN, NaN, 0.0445584, "- N/A -   "
22.27, 789.213, 0.0372834, NaN, NaN, NaN, 0.04089605, "- N/A -   "
22.39, 794.654, 0.03750281, NaN, NaN, NaN, 0.0323506, "- N/A -   "
22.51, 799.267, 0.0376972, NaN, NaN, NaN, 0.0347922, "- N/A -   "
22.63, 804.4709, 0.03790544, NaN, NaN, NaN, 0.03112983, "- N/A -   "
22.75, 808.9655, 0.0380887, NaN, NaN, NaN, 0.0384545, "- N/A -   "
22.87, 813.6968, 0.03828308, NaN, NaN, NaN, 0.04089605, "- N/A -   "
22.99, 818.783, 0.0384858, NaN, NaN, NaN, 0.0396753, "- N/A -   "
23.11, 823.6324, 0.03868849, NaN, NaN, NaN, 0.0384545, "- N/A -   "
23.23, 828.837, 0.0388967, NaN, NaN, NaN, 0.0347922, "- N/A -   "
23.35, 833.6863, 0.03909667, NaN, NaN, NaN, 0.0347922, "- N/A -   "
23.47, 838.536, 0.0392938, NaN, NaN, NaN, 0.03601294, "- N/A -   "
23.59, 843.0304, 0.03947986, NaN, NaN, NaN, 0.04211683, "- N/A -   "
23.71, 848.353, 0.0396881, NaN, NaN, NaN, 0.0384545, "- N/A -   "
23.83, 853.5574, 0.0398964, NaN, NaN, NaN, 0.0347922, "- N/A -   "
23.95, 858.6435, 0.04010463, NaN, NaN, NaN, 0.03112983, "- N/A -   "
24.07, 863.73, 0.0403046, NaN, NaN, NaN, 0.03112983, "- N/A -   "
24.19, 867.6329, 0.0404739, NaN, NaN, NaN, 0.0445584, "- N/A -   "
24.31, 872.601, 0.0406766, NaN, NaN, NaN, 0.0433376, "- N/A -   "
24.43, 878.042, 0.04089323, NaN, NaN, NaN, 0.03601294, "- N/A -   "
24.55, 883.1276, 0.0411015, NaN, NaN, NaN, 0.0323506, "- N/A -   "
24.67, 888.332, 0.04130696, NaN, NaN, NaN, 0.0299091, "- N/A -   "
24.79, 892.7084, 0.04148745, NaN, NaN, NaN, 0.0384545, "- N/A -   "
24.91, 897.203, 0.0416763, NaN, NaN, NaN, 0.0433376, "- N/A -   "
25.03, 902.4074, 0.0418845, NaN, NaN, NaN, 0.0396753, "- N/A -   "
25.15, 907.9666, 0.0421067, NaN, NaN, NaN, 0.0299091, "- N/A -   "
25.27, 913.171, 0.04231215, NaN, NaN, NaN, 0.0274675, "- N/A -   "
25.39, 917.784, 0.04249541, NaN, NaN, NaN, 0.0347922, "- N/A -   "
25.51, 922.3969, 0.04268701, NaN, NaN, NaN, 0.0384545, "- N/A -   "
25.63, 926.8916, 0.0428703, NaN, NaN, NaN, 0.04577916, "- N/A -   "
25.664, 928.4292, 0.0429341, NaN, NaN, NaN, 0.0433376, "- N/A -   "

File: Hamel_ForceTest_Bolt3_Test6.csv
Time, Load (lb), Position (in), AxialStrain (in), TransverseStrain (in), Auxiliary (), Control Out (V), Stress (psi)
0.0, 1.41537, 0.0, NaN, NaN, NaN, 0.100714, "- N/A -   "
0.01, 1.88716, 2.49908e-05, NaN, NaN, NaN, 0.095831, "- N/A -   "
0.02, 2.35895, 4.99815e-05, NaN, NaN, NaN, 0.09338949, "- N/A -   "
0.03, 2.83074, 7.49723E-5, NaN, NaN, NaN, 0.0897272, "- N/A -   "
0.04, 3.18458, 9.99631e-05, NaN, NaN, NaN, 0.084844, "- N/A -   "
0.05, 3.65637, 0.000124954, NaN, NaN, NaN, 0.08118171, "- N/A -   "
0.06, 4.12816, 1.499446E-4, NaN, NaN, NaN, 0.07751938, "- N/A -   "
0.07, 4.59995, 0.000174935, NaN, NaN, NaN, 0.0750778, "- N/A -   "
0.08, 4.953794, 0.000199926, NaN, NaN, NaN, 0.07141549, "- N/A -   "
0.09, 5.307636, 0.00022214, NaN, NaN, NaN, 0.06775316, "- N/A -   "
0.1, 5.779426, 2.471309E-4, NaN, NaN, NaN, 0.0640908, "- N/A -   "
0.11, 6.13327, 2.721217E-4, NaN, NaN, NaN, 0.0604285, "- N/A -   "
0.12, 6.60506, 0.000294336, NaN, NaN, NaN, 0.0579869, "- N/A -   "
0.13, 7.07685, 0.000319326, NaN, NaN, NaN, 0.0543246, "- N/A -   "
0.14, 7.430691, 0.00034154, NaN, NaN, NaN, 0.05188305, "- N/A -   "
0.15, 7.90248, 3.637545E-4, NaN, NaN, NaN, 0.05066227, "- N/A -   "
0.16, 8.138375, 0.000383192, NaN, NaN, NaN, 0.0482207, "- N/A -   "
0.17, 8.492218, 0.000402629, NaN, NaN, NaN, 0.04699994, "- N/A -   "
0.18, 8.846061, 0.000422066, NaN, NaN, NaN, 0.04577916, "- N/A -   "
0.19, 9.081955, 0.000441504, NaN, NaN, NaN, 0.0445584, "- N/A -   "
0.2, 9.553744, 4.609408E-4, NaN, NaN, NaN, 0.0433376, "- N/A -   "
0.21, 9.78964, 0.000480378, NaN, NaN, NaN, 0.04211683, "- N/A -   "
0.22, 10.26143, 0.000499815, NaN, NaN, NaN, 0.04089605, "- N/A -   "
0.23, 10.4973, 5.192526E-4, NaN, NaN, NaN, 0.04089605, "- N/A -   "
0.24, 10.73322, 5.359131E-4, NaN, NaN, NaN, 0.0396753, "- N/A -   "
0.25, 11.0871, 5.525736E-4, NaN, NaN, NaN, 0.0396753, "- N/A -   "
0.26, 11.4409, 0.000569234, NaN, NaN, NaN, 0.0396753, "- N/A -   "
0.27, 11.7947, 0.000588671, NaN, NaN, NaN, 0.0384545, "- N/A -   "
0.28, 12.14859, 6.053319E-4, NaN, NaN, NaN, 0.0384545, "- N/A -   "
0.29, 12.3845, 0.000624769, NaN, NaN, NaN, 0.0372337, "- N/A -   "
0.3, 12.6204, 6.442064E-4, NaN, NaN, NaN, 0.03601294, "- N/A -   "
0.31, 13.09217, 6.636437E-4, NaN, NaN, NaN, 0.0347922, "- N/A -   "
0.32, 13.3281, 6.830809E-4, NaN, NaN, NaN, 0.0335714, "- N/A -   "
0.33, 13.6819, 7.025182E-4, NaN, NaN, NaN, 0.0323506, "- N/A -   "
0.34, 14.0357, 0.000724732, NaN, NaN, NaN, 0.03112983, "- N/A -   "
0.35, 14.3896, 7.413927E-4, NaN, NaN, NaN, 0.0299091, "- N/A -   "
0.36, 14.7434, 7.6083E-4, NaN, NaN, NaN, 0.0286883, "- N/A -   "
0.37, 14.9793, 7.774905E-4, NaN, NaN, NaN, 0.0286883, "- N/A -   "
0.41, 16.0409, 8.38579E-4, NaN, NaN, NaN, 0.03112983, "- N/A -   "
0.45, 16.9844, 8.941141E-4, NaN, NaN, NaN, 0.03601294, "- N/A -   "
0.49, 17.928, 0.000949649, NaN, NaN, NaN, 0.04089605, "- N/A -   "
0.53, 18.8716, 0.00101074, NaN, NaN, NaN, 0.0433376, "- N/A -   "
0.57, 20.05107, 0.001074603, NaN, NaN, NaN, 0.0445584, "- N/A -   "
0.61, 21.1126, 0.001141245, NaN, NaN, NaN, 0.0445584, "- N/A -   "
0.65, 22.41, 0.00121066, NaN, NaN, NaN, 0.0433376, "- N/A -   "
0.69, 23.7074, 0.00128564, NaN, NaN, NaN, 0.04089605, "- N/A -   "
0.73, 24.8869, 0.00135505, NaN, NaN, NaN, 0.0384545, "- N/A -   "
0.77, 26.18434, 0.00142447, NaN, NaN, NaN, 0.0372337, "- N/A -   "
0.81, 27.4818, 0.00149389, NaN, NaN, NaN, 0.0372337, "- N/A -   "
0.85, 28.6612, 0.00156609, NaN, NaN, NaN, 0.0335714, "- N/A -   "
0.89, 29.9587, 0.00163828, NaN, NaN, NaN, 0.03112983, "- N/A -   "
0.93, 31.2561, 0.00170493, NaN, NaN, NaN, 0.03112983, "- N/A -   "
0.97, 32.4356, 0.00177434, NaN, NaN, NaN, 0.0299091, "- N/A -   "
1.01, 33.61503, 0.00184376, NaN, NaN, NaN, 0.0286883, "- N/A -   "
1.05, 34.6766, 0.00190485, NaN, NaN, NaN, 0.03112983, "- N/A -   "
1.09, 35.6201, 0.00196316, NaN, NaN, NaN, 0.03601294, "- N/A -   "
1.13, 36.6817, 0.00202148, NaN, NaN, NaN, 0.0396753, "- N/A -   "
1.17, 37.74319, 0.00207701, NaN, NaN, NaN, 0.0433376, "- N/A -   "
1.21, 39.04061, 0.00214365, NaN, NaN, NaN, 0.0433376, "- N/A -   "
1.25, 40.10214, 0.002213071, NaN, NaN, NaN, 0.0433376, "- N/A -   "
1.29, 41.39956, 0.00227694, NaN, NaN, NaN, 0.0445584, "- N/A -   "
1.33, 42.579, 0.002340802, NaN, NaN, NaN, 0.0445584, "- N/A -   "
1.37, 43.75851, 0.00241022, NaN, NaN, NaN, 0.0433376, "- N/A -   "
1.41, 45.29183, 0.002485193, NaN, NaN, NaN, 0.04089605, "- N/A -   "
1.45, 46.8251, 0.00256572, NaN, NaN, NaN, 0.0347922, "- N/A -   "
1.49, 48.12257, 0.00264069, NaN, NaN, NaN, 0.0299091, "- N/A -   "
1.53, 49.41999, 0.00271011, NaN, NaN, NaN, 0.0286883, "- N/A -   "
1.57, 50.4815, 0.00277398, NaN, NaN, NaN, 0.0299091, "- N/A -   "
1.61, 51.66099, 0.00283784, NaN, NaN, NaN, 0.03112983, "- N/A -   "
1.65, 52.84047, 0.00289615, NaN, NaN, NaN, 0.0347922, "- N/A -   "
1.69, 54.13789, 0.00296002, NaN, NaN, NaN, 0.03601294, "- N/A -   "
1.73, 55.3174, 0.00302666, NaN, NaN, NaN, 0.03601294, "- N/A -   "
1.77, 56.6148, 0.0030933, NaN, NaN, NaN, 0.0372337, "- N/A -   "
1.81, 57.6763, 0.003157167, NaN, NaN, NaN, 0.0372337, "- N/A -   "
1.85, 58.8558, 0.00321826, NaN, NaN, NaN, 0.0396753, "- N/A -   "
1.89, 59.9173, 0.003279344, NaN, NaN, NaN, 0.04211683, "- N/A -   "
1.93, 61.2147, 0.00334043, NaN, NaN, NaN, 0.0445584, "- N/A -   "
1.97, 62.3942, 0.00340707, NaN, NaN, NaN, 0.0445584, "- N/A -   "
2.01, 63.80958, 0.00348205, NaN, NaN, NaN, 0.04089605, "- N/A -   "
2.05, 65.3429, 0.00356257, NaN, NaN, NaN, 0.03601294, "- N/A -   "
2.09, 66.64032, 0.00363199, NaN, NaN, NaN, 0.0335714, "- N/A -   "
2.13, 67.9377, 0.003704187, NaN, NaN, NaN, 0.03112983, "- N/A -   "
2.17, 69.11722, 0.003770829, NaN, NaN, NaN, 0.03112983, "- N/A -   "
2.21, 70.41464, 0.00383469, NaN, NaN, NaN, 0.0323506, "- N/A -   "
2.25, 71.59412, 0.00390134, NaN, NaN, NaN, 0.0335714, "- N/A -   "
2.29, 72.77359, 0.003965202, NaN, NaN, NaN, 0.0335714, "- N/A -   "
2.33, 74.071, 0.00403462, NaN, NaN, NaN, 0.0323506, "- N/A -   "
2.37, 75.36844, 0.004104039, NaN, NaN, NaN, 0.03112983, "- N/A -   "
2.41, 76.5479, 0.004165128, NaN, NaN, NaN, 0.0335714, "- N/A -   "
2.45, 77.72738, 0.004226216, NaN, NaN, NaN, 0.03601294, "- N/A -   "
2.49, 78.67096, 0.004287305, NaN, NaN, NaN, 0.0396753, "- N/A -   "
2.53, 79.85043, 0.004345617, NaN, NaN, NaN, 0.04211683, "- N/A -   "
2.57, 80.912, 0.004409482, NaN, NaN, NaN, 0.0433376, "- N/A -   "
2.61, 82.44528, 0.004484454, NaN, NaN, NaN, 0.0396753, "- N/A -   "
2.65, 83.86065, 0.004553873, NaN, NaN, NaN, 0.0384545, "- N/A -   "
2.69, 84.92217, 0.004620515, NaN, NaN, NaN, 0.0384545, "- N/A -   "
2.73, 86.2196, 0.00468993, NaN, NaN, NaN, 0.0372337, "- N/A -   "
2.77, 87.51702, 0.004759353, NaN, NaN, NaN, 0.0372337, "- N/A -   "
2.81, 88.8144, 0.004828771, NaN, NaN, NaN, 0.03601294, "- N/A -   "
2.85, 89.758, 0.00488986, NaN, NaN, NaN, 0.0372337, "- N/A -   "
2.89, 91.05545, 0.004959279, NaN, NaN, NaN, 0.03601294, "- N/A -   "
2.93, 92.23492, 0.005028697, NaN, NaN, NaN, 0.0347922, "- N/A -   "
2.97, 93.53234, 0.00510089, NaN, NaN, NaN, 0.0335714, "- N/A -   "
3.01, 94.59387, 0.00516476, NaN, NaN, NaN, 0.0335714, "- N/A -   "
3.05, 95.7733, 0.005234177, NaN, NaN, NaN, 0.0323506, "- N/A -   "
3.09, 96.95282, 0.005303596, NaN, NaN, NaN, 0.0323506, "- N/A -   "
3.13, 98.13229, 0.00537301, NaN, NaN, NaN, 0.0299091, "- N/A -   "
[...]
33.41, 1240.89, 0.0558183, NaN, NaN, NaN, 0.0396753, "- N/A -   "
33.49, 1244.35, 0.0559571, NaN, NaN, NaN, 0.0372337, "- N/A -   "
33.57, 1247.69, 0.0560932, NaN, NaN, NaN, 0.03601294, "- N/A -   "
33.65, 1251.27, 0.0562376, NaN, NaN, NaN, 0.03112983, "- N/A -   "
33.73, 1254.6, 0.05636806, NaN, NaN, NaN, 0.0323506, "- N/A -   "
33.81, 1257.82, 0.05649857, NaN, NaN, NaN, 0.0347922, "- N/A -   "
33.89, 1260.92, 0.05662908, NaN, NaN, NaN, 0.0347922, "- N/A -   "
33.97, 1264.03, 0.056754, NaN, NaN, NaN, 0.0384545, "- N/A -   "
34.05, 1267.01, 0.05687621, NaN, NaN, NaN, 0.0433376, "- N/A -   "
34.13, 1270.23, 0.05700394, NaN, NaN, NaN, 0.04577916, "- N/A -   "
34.21, 1274.281, 0.0571622, NaN, NaN, NaN, 0.03601294, "- N/A -   "
34.29, 1277.74, 0.0572983, NaN, NaN, NaN, 0.0335714, "- N/A -   "
34.37, 1280.96, 0.05743156, NaN, NaN, NaN, 0.0335714, "- N/A -   "
34.45, 1284.656, 0.05757595, NaN, NaN, NaN, 0.0286883, "- N/A -   "
34.53, 1287.88, 0.0577065, NaN, NaN, NaN, 0.03112983, "- N/A -   "
34.61, 1290.62, 0.0578203, NaN, NaN, NaN, 0.0384545, "- N/A -   "
34.69, 1293.6, 0.0579425, NaN, NaN, NaN, 0.0445584, "- N/A -   "
34.77, 1296.939, 0.0580785, NaN, NaN, NaN, 0.0433376, "- N/A -   "
34.85, 1300.755, 0.05822849, NaN, NaN, NaN, 0.0347922, "- N/A -   "
34.93, 1304.094, 0.0583645, NaN, NaN, NaN, 0.0335714, "- N/A -   "
35.01, 1307.79, 0.05850894, NaN, NaN, NaN, 0.0299091, "- N/A -   "
35.09, 1311.25, 0.0586478, NaN, NaN, NaN, 0.0274675, "- N/A -   "
35.17, 1314.23, 0.0587672, NaN, NaN, NaN, 0.0335714, "- N/A -   "
35.25, 1317.09, 0.05888658, NaN, NaN, NaN, 0.0396753, "- N/A -   "
35.33, 1320.07, 0.0590088, NaN, NaN, NaN, 0.0445584, "- N/A -   "
35.41, 1323.41, 0.05914204, NaN, NaN, NaN, 0.04577916, "- N/A -   "
35.49, 1326.752, 0.05927532, NaN, NaN, NaN, 0.0445584, "- N/A -   "
35.57, 1330.69, 0.05943082, NaN, NaN, NaN, 0.0347922, "- N/A -   "
35.65, 1334.384, 0.0595808, NaN, NaN, NaN, 0.0286883, "- N/A -   "
35.73, 1337.48, 0.0597029, NaN, NaN, NaN, 0.0323506, "- N/A -   "
35.81, 1340.59, 0.05982512, NaN, NaN, NaN, 0.0372337, "- N/A -   "
35.89, 1343.92, 0.0599612, NaN, NaN, NaN, 0.03601294, "- N/A -   "
35.97, 1346.91, 0.0600834, NaN, NaN, NaN, 0.04089605, "- N/A -   "
36.05, 1349.89, 0.06020831, NaN, NaN, NaN, 0.0445584, "- N/A -   "
36.13, 1353.46, 0.0603499, NaN, NaN, NaN, 0.04211683, "- N/A -   "
36.21, 1357.64, 0.0605054, NaN, NaN, NaN, 0.03112983, "- N/A -   "
36.29, 1360.858, 0.0606359, NaN, NaN, NaN, 0.0323506, "- N/A -   "
36.37, 1363.96, 0.06076088, NaN, NaN, NaN, 0.03601294, "- N/A -   "
36.45, 1367.42, 0.06089972, NaN, NaN, NaN, 0.0335714, "- N/A -   "
36.53, 1370.76, 0.0610358, NaN, NaN, NaN, 0.0323506, "- N/A -   "
36.61, 1373.74, 0.06115518, NaN, NaN, NaN, 0.0384545, "- N/A -   "
36.69, 1376.72, 0.06128014, NaN, NaN, NaN, 0.0433376, "- N/A -   "
36.77, 1380.42, 0.0614218, NaN, NaN, NaN, 0.0384545, "- N/A -   "
36.85, 1383.64, 0.06155226, NaN, NaN, NaN, 0.0396753, "- N/A -   "
36.93, 1387.09, 0.0616911, NaN, NaN, NaN, 0.0372337, "- N/A -   "
37.01, 1390.671, 0.06183271, NaN, NaN, NaN, 0.0335714, "- N/A -   "
37.09, 1394.13, 0.06196877, NaN, NaN, NaN, 0.0323506, "- N/A -   "
37.17, 1397.23, 0.0621021, NaN, NaN, NaN, 0.0335714, "- N/A -   "
37.25, 1400.45, 0.06222979, NaN, NaN, NaN, 0.0347922, "- N/A -   "
37.33, 1403.431, 0.0623575, NaN, NaN, NaN, 0.0372337, "- N/A -   "
37.41, 1406.53, 0.0624797, NaN, NaN, NaN, 0.0433376, "- N/A -   "
37.49, 1409.99, 0.06261298, NaN, NaN, NaN, 0.0433376, "- N/A -   "
37.57, 1413.45, 0.0627518, NaN, NaN, NaN, 0.0396753, "- N/A -   "
37.606, 1415.24, 0.06282123, NaN, NaN, NaN, 0.03601294, "- N/A -   "